»»»»»»»»»»»»»»»»»»»»»»»»»»»»»»»»»»»» Hysteresis ««««««««««««««««««««««««««««««««««««
»»»  Executed Version:	5.48.1
»»»  Vision Version:	5.48.4 (R)
»»»  Vision Compiled:	9/18/24
»»»  Driver Version:	5.47.0
»»»  Windows Version:	Windows 8 or 8.1
»»»  Processor Information:	x86 (AMD or Intel) - 32 Processors
»»»  Tester Name:	PMF21124-494 (100V)
»»»  Tester S/N:	PMF21124-494
»»»  Internal Amp Type:	100V RevK 270k
»»»  Internal Amp S/N:	iAB2-596/K     
»»»  Execution Count:	1
»»»»»»»»»»»»»»»»»»»»»»»»»»»»»»»»»»»»»»»»»»««««««««««««««««««««««««««««««««««««««««««

Stored:	7/7/2025 - 14:31:42
Configured:	07/07/25 01:27:50 PM
Executed:	07/07/25 02:31:16 PM

»»»»»»»»»»»»»»»»»»»»»»»»»»»»»»»»»»» Sample Info ««««««««««««««««««««««««««««««««««««
Sample Name:	
Lot Name:	
Wafer Name:	
Die Row/Column:	0/0
Capacitor Number:	0
Sample Area (cm2):	1.00e-04
Sample Thickness (microns):	1.50e-01

Amplifier:	Internal

»»»»»»»»»»»»»»»»»»»»»»»»»»»»»»»»»»» Tester Info «««««««««««««««««««««««««««««««««««
Tester Name:	PMF21124-494 (100V)
Tester Serial Number:	PMF21124-494
Return Signal Amp. Level:	0.19 [Index: 3]

»»»»»»»»»»»»»»»»»»»»»»»»»»»»»»»» Hysteresis Info ««««««««««««««««««««««««««««««««««
Task Name:	Hyst-528
Volts:	10.00
Field:	666.67 (kV/cm)
DCBias:	0.00
DCField:	0.00 (kV/cm)
Hysteresis Period (ms):	2.00e+02
Preset:	Enabled
Preset Delay (ms):	1.00e+03
Profile:	Standard Bipolar

»»»»»»»»»»»»»»»»»»»»»»»»»»»»»»»»»»»»»» Data «««««««««««««««««««««««««««««««««««««««
Points:	2009

Valid Data

Point	Time (ms)	Drive Voltage	Measured Polarization (uC/cm2)	Capacitance (uF)	Normalized Capacitance (uF/cm2)	Dielectric Constant	Instantaneous Current (mA)
   1	0.0000e+00	-0.0006	10.371402	0.000669	6.688531	1.133068	0.000134
   2	9.9500e-02	0.0195	10.504627	0.000669	6.688531	1.133068	0.000134
   3	1.9900e-01	0.0393	10.585370	0.000405	4.053655	0.686708	0.000081
   4	2.9850e-01	0.0591	10.698410	0.000568	5.675118	0.961391	0.000114
   5	3.9800e-01	0.0800	10.839709	0.000709	7.093897	1.201739	0.000142
   6	4.9750e-01	0.1004	10.940638	0.000507	5.067069	0.858385	0.000101
   7	5.9700e-01	0.1167	11.033492	0.000466	4.661704	0.789714	0.000093
   8	6.9650e-01	0.1381	11.154606	0.000608	6.080483	1.030062	0.000122
   9	7.9600e-01	0.1584	11.255534	0.000507	5.067069	0.858385	0.000101
  10	8.9550e-01	0.1787	11.380686	0.000628	6.283166	1.064397	0.000126
  11	9.9500e-01	0.1981	11.453354	0.000365	3.648290	0.618037	0.000073
  12	1.0945e+00	0.2180	11.570431	0.000588	5.877800	0.995726	0.000118
  13	1.1940e+00	0.2391	11.723842	0.000770	7.701945	1.304745	0.000154
  14	1.2935e+00	0.2585	11.828808	0.000527	5.269752	0.892720	0.000105
  15	1.3930e+00	0.2779	11.921662	0.000466	4.661704	0.789714	0.000093
  16	1.4925e+00	0.2987	12.050850	0.000649	6.485849	1.098733	0.000130
  17	1.5920e+00	0.3188	12.147741	0.000486	4.864386	0.824049	0.000097
  18	1.6915e+00	0.3384	12.224447	0.000385	3.850973	0.652372	0.000077
  19	1.7910e+00	0.3576	12.377858	0.000770	7.701945	1.304745	0.000154
  20	1.8905e+00	0.3776	12.503009	0.000628	6.283166	1.064397	0.000126
  21	1.9900e+00	0.3979	12.555492	0.000263	2.634876	0.446360	0.000053
  22	2.0895e+00	0.4184	12.696792	0.000709	7.093897	1.201739	0.000142
  23	2.1890e+00	0.4385	12.821943	0.000628	6.283166	1.064397	0.000126
  24	2.2885e+00	0.4581	12.939020	0.000588	5.877800	0.995726	0.000118
  25	2.3880e+00	0.4784	13.039948	0.000507	5.067069	0.858385	0.000101
  26	2.4875e+00	0.4987	13.169137	0.000649	6.485849	1.098733	0.000130
  27	2.5870e+00	0.5177	13.245842	0.000385	3.850973	0.652372	0.000077
  28	2.6865e+00	0.5376	13.366956	0.000608	6.080483	1.030062	0.000122
  29	2.7860e+00	0.5580	13.508256	0.000709	7.093897	1.201739	0.000142
  30	2.8855e+00	0.5773	13.588999	0.000405	4.053655	0.686708	0.000081
  31	2.9850e+00	0.5978	13.722224	0.000669	6.688531	1.133068	0.000134
  32	3.0845e+00	0.6182	13.811041	0.000446	4.459021	0.755379	0.000089
  33	3.1840e+00	0.6375	13.940230	0.000649	6.485849	1.098733	0.000130
  34	3.2835e+00	0.6570	14.073455	0.000669	6.688531	1.133068	0.000134
  35	3.3830e+00	0.6768	14.190532	0.000588	5.877800	0.995726	0.000118
  36	3.4825e+00	0.6957	14.311646	0.000608	6.080483	1.030062	0.000122
  37	3.5820e+00	0.7169	14.400463	0.000446	4.459021	0.755379	0.000089
  38	3.6815e+00	0.7369	14.505429	0.000527	5.269752	0.892720	0.000105
  39	3.7810e+00	0.7568	14.630580	0.000628	6.283166	1.064397	0.000126
  40	3.8805e+00	0.7770	14.727471	0.000486	4.864386	0.824049	0.000097
  41	3.9800e+00	0.7961	14.860697	0.000669	6.688531	1.133068	0.000134
  42	4.0795e+00	0.8160	14.977774	0.000588	5.877800	0.995726	0.000118
  43	4.1790e+00	0.8364	15.139259	0.000811	8.107311	1.373416	0.000162
  44	4.2785e+00	0.8568	15.240187	0.000507	5.067069	0.858385	0.000101
  45	4.3780e+00	0.8769	15.369376	0.000649	6.485849	1.098733	0.000130
  46	4.4775e+00	0.8964	15.458193	0.000446	4.459021	0.755379	0.000089
  47	4.5770e+00	0.9169	15.551047	0.000466	4.661704	0.789714	0.000093
  48	4.6765e+00	0.9364	15.668124	0.000588	5.877800	0.995726	0.000118
  49	4.7760e+00	0.9556	15.805386	0.000689	6.891214	1.167403	0.000138
  50	4.8755e+00	0.9759	15.926500	0.000608	6.080483	1.030062	0.000122
  51	4.9750e+00	0.9965	16.019355	0.000466	4.661704	0.789714	0.000093
  52	5.0745e+00	1.0166	16.116246	0.000486	4.864386	0.824049	0.000097
  53	5.1740e+00	1.0358	16.245434	0.000649	6.485849	1.098733	0.000130
  54	5.2735e+00	1.0561	16.378660	0.000669	6.688531	1.133068	0.000134
  55	5.3730e+00	1.0762	16.499774	0.000608	6.080483	1.030062	0.000122
  56	5.4725e+00	1.0952	16.620888	0.000608	6.080483	1.030062	0.000122
  57	5.5720e+00	1.1156	16.697593	0.000385	3.850973	0.652372	0.000077
  58	5.6715e+00	1.1355	16.846967	0.000750	7.499262	1.270409	0.000150
  59	5.7710e+00	1.1554	16.968082	0.000608	6.080483	1.030062	0.000122
  60	5.8705e+00	1.1754	17.060936	0.000466	4.661704	0.789714	0.000093
  61	5.9700e+00	1.1954	17.190124	0.000649	6.485849	1.098733	0.000130
  62	6.0695e+00	1.2153	17.331424	0.000709	7.093897	1.201739	0.000142
  63	6.1690e+00	1.2344	17.420241	0.000446	4.459021	0.755379	0.000089
  64	6.2685e+00	1.2551	17.533281	0.000568	5.675118	0.961391	0.000114
  65	6.3680e+00	1.2750	17.662469	0.000649	6.485849	1.098733	0.000130
  66	6.4675e+00	1.2942	17.767434	0.000527	5.269752	0.892720	0.000105
  67	6.5670e+00	1.3136	17.888548	0.000608	6.080483	1.030062	0.000122
  68	6.6665e+00	1.3343	18.001588	0.000568	5.675118	0.961391	0.000114
  69	6.7660e+00	1.3541	18.094442	0.000466	4.661704	0.789714	0.000093
  70	6.8655e+00	1.3740	18.251891	0.000790	7.904628	1.339080	0.000158
  71	6.9650e+00	1.3935	18.360893	0.000547	5.472435	0.927056	0.000110
  72	7.0645e+00	1.4142	18.461822	0.000507	5.067069	0.858385	0.000101
  73	7.1640e+00	1.4347	18.619270	0.000790	7.904628	1.339080	0.000158
  74	7.2635e+00	1.4536	18.756533	0.000689	6.891214	1.167403	0.000138
  75	7.3630e+00	1.4729	18.845350	0.000446	4.459021	0.755379	0.000089
  76	7.4625e+00	1.4937	18.970501	0.000628	6.283166	1.064397	0.000126
  77	7.5620e+00	1.5136	19.107763	0.000689	6.891214	1.167403	0.000138
  78	7.6615e+00	1.5347	19.212729	0.000527	5.269752	0.892720	0.000105
  79	7.7610e+00	1.5536	19.345954	0.000669	6.688531	1.133068	0.000134
  80	7.8605e+00	1.5731	19.434771	0.000446	4.459021	0.755379	0.000089
  81	7.9600e+00	1.5929	19.584145	0.000750	7.499262	1.270409	0.000150
  82	8.0595e+00	1.6135	19.697185	0.000568	5.675118	0.961391	0.000114
  83	8.1590e+00	1.6327	19.830411	0.000669	6.688531	1.133068	0.000134
  84	8.2585e+00	1.6520	19.951525	0.000608	6.080483	1.030062	0.000122
  85	8.3580e+00	1.6731	20.052453	0.000507	5.067069	0.858385	0.000101
  86	8.4575e+00	1.6926	20.173567	0.000608	6.080483	1.030062	0.000122
  87	8.5570e+00	1.7128	20.314867	0.000709	7.093897	1.201739	0.000142
  88	8.6565e+00	1.7330	20.395610	0.000405	4.053655	0.686708	0.000081
  89	8.7560e+00	1.7519	20.540947	0.000730	7.296580	1.236074	0.000146
  90	8.8555e+00	1.7727	20.645912	0.000527	5.269752	0.892720	0.000105
  91	8.9550e+00	1.7929	20.787212	0.000709	7.093897	1.201739	0.000142
  92	9.0545e+00	1.8122	20.900252	0.000568	5.675118	0.961391	0.000114
  93	9.1540e+00	1.8326	21.021366	0.000608	6.080483	1.030062	0.000122
  94	9.2535e+00	1.8520	21.134406	0.000568	5.675118	0.961391	0.000114
  95	9.3530e+00	1.8732	21.223223	0.000446	4.459021	0.755379	0.000089
  96	9.4525e+00	1.8923	21.336262	0.000568	5.675118	0.961391	0.000114
  97	9.5520e+00	1.9122	21.493711	0.000790	7.904628	1.339080	0.000158
  98	9.6515e+00	1.9314	21.574453	0.000405	4.053655	0.686708	0.000081
  99	9.7510e+00	1.9524	21.707679	0.000669	6.688531	1.133068	0.000134
 100	9.8505e+00	1.9711	21.844941	0.000689	6.891214	1.167403	0.000138
 101	9.9500e+00	1.9915	21.949907	0.000527	5.269752	0.892720	0.000105
 102	1.0050e+01	2.0115	22.099281	0.000750	7.499262	1.270409	0.000150
 103	1.0149e+01	2.0294	22.175987	0.000385	3.850973	0.652372	0.000077
 104	1.0248e+01	2.0513	22.313249	0.000689	6.891214	1.167403	0.000138
 105	1.0348e+01	2.0721	22.418215	0.000527	5.269752	0.892720	0.000105
 106	1.0447e+01	2.0902	22.551440	0.000669	6.688531	1.133068	0.000134
 107	1.0547e+01	2.1116	22.636220	0.000426	4.256338	0.721043	0.000085
 108	1.0646e+01	2.1310	22.817891	0.000912	9.120725	1.545093	0.000183
 109	1.0746e+01	2.1513	22.934968	0.000588	5.877800	0.995726	0.000118
 110	1.0845e+01	2.1709	23.043971	0.000547	5.472435	0.927056	0.000110
 111	1.0945e+01	2.1910	23.152973	0.000547	5.472435	0.927056	0.000110
 112	1.1044e+01	2.2108	23.266013	0.000568	5.675118	0.961391	0.000114
 113	1.1144e+01	2.2303	23.411350	0.000730	7.296580	1.236074	0.000146
 114	1.1243e+01	2.2512	23.520353	0.000547	5.472435	0.927056	0.000110
 115	1.1343e+01	2.2707	23.637430	0.000588	5.877800	0.995726	0.000118
 116	1.1443e+01	2.2910	23.774692	0.000689	6.891214	1.167403	0.000138
 117	1.1542e+01	2.3109	23.903881	0.000649	6.485849	1.098733	0.000130
 118	1.1642e+01	2.3312	23.992698	0.000446	4.459021	0.755379	0.000089
 119	1.1741e+01	2.3498	24.109775	0.000588	5.877800	0.995726	0.000118
 120	1.1841e+01	2.3705	24.214740	0.000527	5.269752	0.892720	0.000105
 121	1.1940e+01	2.3907	24.364114	0.000750	7.499262	1.270409	0.000150
 122	1.2040e+01	2.4107	24.473117	0.000547	5.472435	0.927056	0.000110
 123	1.2139e+01	2.4306	24.630565	0.000790	7.904628	1.339080	0.000158
 124	1.2239e+01	2.4503	24.719382	0.000446	4.459021	0.755379	0.000089
 125	1.2338e+01	2.4700	24.856645	0.000689	6.891214	1.167403	0.000138
 126	1.2438e+01	2.4900	24.953536	0.000486	4.864386	0.824049	0.000097
 127	1.2537e+01	2.5095	25.110984	0.000790	7.904628	1.339080	0.000158
 128	1.2636e+01	2.5282	25.215950	0.000527	5.269752	0.892720	0.000105
 129	1.2736e+01	2.5491	25.312841	0.000486	4.864386	0.824049	0.000097
 130	1.2835e+01	2.5713	25.442029	0.000649	6.485849	1.098733	0.000130
 131	1.2935e+01	2.5896	25.559106	0.000588	5.877800	0.995726	0.000118
 132	1.3034e+01	2.6083	25.680220	0.000608	6.080483	1.030062	0.000122
 133	1.3134e+01	2.6299	25.797297	0.000588	5.877800	0.995726	0.000118
 134	1.3233e+01	2.6488	25.914374	0.000588	5.877800	0.995726	0.000118
 135	1.3333e+01	2.6684	26.043563	0.000649	6.485849	1.098733	0.000130
 136	1.3432e+01	2.6893	26.148528	0.000527	5.269752	0.892720	0.000105
 137	1.3532e+01	2.7093	26.330199	0.000912	9.120725	1.545093	0.000183
 138	1.3632e+01	2.7284	26.370571	0.000203	2.026828	0.343354	0.000041
 139	1.3731e+01	2.7486	26.515908	0.000730	7.296580	1.236074	0.000146
 140	1.3831e+01	2.7693	26.669319	0.000770	7.701945	1.304745	0.000154
 141	1.3930e+01	2.7886	26.774284	0.000527	5.269752	0.892720	0.000105
 142	1.4030e+01	2.8091	26.899435	0.000628	6.283166	1.064397	0.000126
 143	1.4129e+01	2.8283	26.976141	0.000385	3.850973	0.652372	0.000077
 144	1.4229e+01	2.8476	27.113404	0.000689	6.891214	1.167403	0.000138
 145	1.4328e+01	2.8682	27.246629	0.000669	6.688531	1.133068	0.000134
 146	1.4428e+01	2.8883	27.355632	0.000547	5.472435	0.927056	0.000110
 147	1.4527e+01	2.9084	27.448486	0.000466	4.661704	0.789714	0.000093
 148	1.4627e+01	2.9285	27.593823	0.000730	7.296580	1.236074	0.000146
 149	1.4726e+01	2.9472	27.706863	0.000568	5.675118	0.961391	0.000114
 150	1.4825e+01	2.9677	27.844125	0.000689	6.891214	1.167403	0.000138
 151	1.4925e+01	2.9871	27.965239	0.000608	6.080483	1.030062	0.000122
 152	1.5024e+01	3.0087	28.078279	0.000568	5.675118	0.961391	0.000114
 153	1.5124e+01	3.0285	28.191319	0.000568	5.675118	0.961391	0.000114
 154	1.5223e+01	3.0474	28.292247	0.000507	5.067069	0.858385	0.000101
 155	1.5323e+01	3.0671	28.453733	0.000811	8.107311	1.373416	0.000162
 156	1.5422e+01	3.0878	28.566772	0.000568	5.675118	0.961391	0.000114
 157	1.5522e+01	3.1081	28.671738	0.000527	5.269752	0.892720	0.000105
 158	1.5621e+01	3.1278	28.792852	0.000608	6.080483	1.030062	0.000122
 159	1.5721e+01	3.1484	28.897818	0.000527	5.269752	0.892720	0.000105
 160	1.5820e+01	3.1673	29.027006	0.000649	6.485849	1.098733	0.000130
 161	1.5920e+01	3.1862	29.160231	0.000669	6.688531	1.133068	0.000134
 162	1.6020e+01	3.2065	29.249048	0.000446	4.459021	0.755379	0.000089
 163	1.6119e+01	3.2269	29.374200	0.000628	6.283166	1.064397	0.000126
 164	1.6218e+01	3.2470	29.527611	0.000770	7.701945	1.304745	0.000154
 165	1.6318e+01	3.2668	29.608354	0.000405	4.053655	0.686708	0.000081
 166	1.6418e+01	3.2863	29.737542	0.000649	6.485849	1.098733	0.000130
 167	1.6517e+01	3.3062	29.870767	0.000669	6.688531	1.133068	0.000134
 168	1.6616e+01	3.3274	29.975733	0.000527	5.269752	0.892720	0.000105
 169	1.6716e+01	3.3466	30.141255	0.000831	8.309994	1.407751	0.000166
 170	1.6816e+01	3.3661	30.201812	0.000304	3.040242	0.515031	0.000061
 171	1.6915e+01	3.3868	30.318889	0.000588	5.877800	0.995726	0.000118
 172	1.7015e+01	3.4054	30.423855	0.000527	5.269752	0.892720	0.000105
 173	1.7114e+01	3.4261	30.532858	0.000547	5.472435	0.927056	0.000110
 174	1.7213e+01	3.4454	30.698380	0.000831	8.309994	1.407751	0.000166
 175	1.7313e+01	3.4667	30.771049	0.000365	3.648290	0.618037	0.000073
 176	1.7413e+01	3.4868	30.916385	0.000730	7.296580	1.236074	0.000146
 177	1.7512e+01	3.5070	31.061722	0.000730	7.296580	1.236074	0.000146
 178	1.7611e+01	3.5256	31.158614	0.000486	4.864386	0.824049	0.000097
 179	1.7711e+01	3.5458	31.267616	0.000547	5.472435	0.927056	0.000110
 180	1.7811e+01	3.5647	31.372582	0.000527	5.269752	0.892720	0.000105
 181	1.7910e+01	3.5859	31.534067	0.000811	8.107311	1.373416	0.000162
 182	1.8009e+01	3.6050	31.634996	0.000507	5.067069	0.858385	0.000101
 183	1.8109e+01	3.6257	31.731887	0.000486	4.864386	0.824049	0.000097
 184	1.8209e+01	3.6452	31.861075	0.000649	6.485849	1.098733	0.000130
 185	1.8308e+01	3.6666	32.010449	0.000750	7.499262	1.270409	0.000150
 186	1.8407e+01	3.6852	32.111378	0.000507	5.067069	0.858385	0.000101
 187	1.8507e+01	3.7048	32.236529	0.000628	6.283166	1.064397	0.000126
 188	1.8607e+01	3.7254	32.357643	0.000608	6.080483	1.030062	0.000122
 189	1.8706e+01	3.7459	32.438386	0.000405	4.053655	0.686708	0.000081
 190	1.8805e+01	3.7656	32.547388	0.000547	5.472435	0.927056	0.000110
 191	1.8905e+01	3.7844	32.680614	0.000669	6.688531	1.133068	0.000134
 192	1.9005e+01	3.8042	32.777505	0.000486	4.864386	0.824049	0.000097
 193	1.9104e+01	3.8244	32.930916	0.000770	7.701945	1.304745	0.000154
 194	1.9203e+01	3.8445	33.011659	0.000405	4.053655	0.686708	0.000081
 195	1.9303e+01	3.8654	33.165070	0.000770	7.701945	1.304745	0.000154
 196	1.9402e+01	3.8840	33.270036	0.000527	5.269752	0.892720	0.000105
 197	1.9502e+01	3.9036	33.391150	0.000608	6.080483	1.030062	0.000122
 198	1.9602e+01	3.9239	33.488041	0.000486	4.864386	0.824049	0.000097
 199	1.9701e+01	3.9444	33.601081	0.000568	5.675118	0.961391	0.000114
 200	1.9800e+01	3.9651	33.722195	0.000608	6.080483	1.030062	0.000122
 201	1.9900e+01	3.9838	33.859457	0.000689	6.891214	1.167403	0.000138
 202	2.0000e+01	4.0036	33.952312	0.000466	4.661704	0.789714	0.000093
 203	2.0099e+01	4.0228	34.069388	0.000588	5.877800	0.995726	0.000118
 204	2.0198e+01	4.0438	34.206651	0.000689	6.891214	1.167403	0.000138
 205	2.0298e+01	4.0643	34.303542	0.000486	4.864386	0.824049	0.000097
 206	2.0398e+01	4.0836	34.392359	0.000446	4.459021	0.755379	0.000089
 207	2.0497e+01	4.1035	34.517511	0.000628	6.283166	1.064397	0.000126
 208	2.0596e+01	4.1235	34.630550	0.000568	5.675118	0.961391	0.000114
 209	2.0696e+01	4.1441	34.775887	0.000730	7.296580	1.236074	0.000146
 210	2.0796e+01	4.1634	34.905076	0.000649	6.485849	1.098733	0.000130
 211	2.0895e+01	4.1824	35.010041	0.000527	5.269752	0.892720	0.000105
 212	2.0994e+01	4.2025	35.110970	0.000507	5.067069	0.858385	0.000101
 213	2.1094e+01	4.2239	35.264381	0.000770	7.701945	1.304745	0.000154
 214	2.1194e+01	4.2434	35.345123	0.000405	4.053655	0.686708	0.000081
 215	2.1293e+01	4.2635	35.466237	0.000608	6.080483	1.030062	0.000122
 216	2.1392e+01	4.2834	35.563129	0.000486	4.864386	0.824049	0.000097
 217	2.1492e+01	4.3034	35.684243	0.000608	6.080483	1.030062	0.000122
 218	2.1591e+01	4.3221	35.801320	0.000588	5.877800	0.995726	0.000118
 219	2.1691e+01	4.3420	35.906285	0.000527	5.269752	0.892720	0.000105
 220	2.1791e+01	4.3615	36.051622	0.000730	7.296580	1.236074	0.000146
 221	2.1890e+01	4.3833	36.140439	0.000446	4.459021	0.755379	0.000089
 222	2.1989e+01	4.4018	36.293850	0.000770	7.701945	1.304745	0.000154
 223	2.2089e+01	4.4222	36.382667	0.000446	4.459021	0.755379	0.000089
 224	2.2189e+01	4.4424	36.479559	0.000486	4.864386	0.824049	0.000097
 225	2.2288e+01	4.4627	36.620858	0.000709	7.093897	1.201739	0.000142
 226	2.2387e+01	4.4817	36.725824	0.000527	5.269752	0.892720	0.000105
 227	2.2487e+01	4.5026	36.790418	0.000324	3.242924	0.549366	0.000065
 228	2.2587e+01	4.5226	36.927681	0.000689	6.891214	1.167403	0.000138
 229	2.2686e+01	4.5419	37.016498	0.000446	4.459021	0.755379	0.000089
 230	2.2785e+01	4.5614	37.149723	0.000669	6.688531	1.133068	0.000134
 231	2.2885e+01	4.5818	37.250651	0.000507	5.067069	0.858385	0.000101
 232	2.2985e+01	4.6010	37.391951	0.000709	7.093897	1.201739	0.000142
 233	2.3084e+01	4.6217	37.484805	0.000466	4.661704	0.789714	0.000093
 234	2.3183e+01	4.6421	37.613994	0.000649	6.485849	1.098733	0.000130
 235	2.3283e+01	4.6612	37.698774	0.000426	4.256338	0.721043	0.000085
 236	2.3383e+01	4.6812	37.823925	0.000628	6.283166	1.064397	0.000126
 237	2.3482e+01	4.7012	37.941002	0.000588	5.877800	0.995726	0.000118
 238	2.3581e+01	4.7213	38.062116	0.000608	6.080483	1.030062	0.000122
 239	2.3681e+01	4.7402	38.146896	0.000426	4.256338	0.721043	0.000085
 240	2.3780e+01	4.7602	38.296270	0.000750	7.499262	1.270409	0.000150
 241	2.3880e+01	4.7810	38.344715	0.000243	2.432193	0.412025	0.000049
 242	2.3980e+01	4.8016	38.522349	0.000892	8.918042	1.510757	0.000179
 243	2.4079e+01	4.8211	38.619240	0.000486	4.864386	0.824049	0.000097
 244	2.4178e+01	4.8406	38.712095	0.000466	4.661704	0.789714	0.000093
 245	2.4278e+01	4.8606	38.833209	0.000608	6.080483	1.030062	0.000122
 246	2.4378e+01	4.8806	38.958360	0.000628	6.283166	1.064397	0.000126
 247	2.4477e+01	4.9007	39.043140	0.000426	4.256338	0.721043	0.000085
 248	2.4576e+01	4.9207	39.168291	0.000628	6.283166	1.064397	0.000126
 249	2.4676e+01	4.9409	39.297479	0.000649	6.485849	1.098733	0.000130
 250	2.4776e+01	4.9609	39.402445	0.000527	5.269752	0.892720	0.000105
 251	2.4875e+01	4.9804	39.523559	0.000608	6.080483	1.030062	0.000122
 252	2.4974e+01	5.0002	39.616413	0.000466	4.661704	0.789714	0.000093
 253	2.5074e+01	5.0204	39.741564	0.000628	6.283166	1.064397	0.000126
 254	2.5174e+01	5.0401	39.862678	0.000608	6.080483	1.030062	0.000122
 255	2.5273e+01	5.0601	39.939384	0.000385	3.850973	0.652372	0.000077
 256	2.5372e+01	5.0794	40.064535	0.000628	6.283166	1.064397	0.000126
 257	2.5472e+01	5.0998	40.161426	0.000486	4.864386	0.824049	0.000097
 258	2.5572e+01	5.1194	40.270429	0.000547	5.472435	0.927056	0.000110
 259	2.5671e+01	5.1389	40.391543	0.000608	6.080483	1.030062	0.000122
 260	2.5770e+01	5.1595	40.504583	0.000568	5.675118	0.961391	0.000114
 261	2.5870e+01	5.1797	40.577251	0.000365	3.648290	0.618037	0.000073
 262	2.5970e+01	5.1995	40.674143	0.000486	4.864386	0.824049	0.000097
 263	2.6069e+01	5.2187	40.811405	0.000689	6.891214	1.167403	0.000138
 264	2.6169e+01	5.2386	40.940594	0.000649	6.485849	1.098733	0.000130
 265	2.6268e+01	5.2587	41.021336	0.000405	4.053655	0.686708	0.000081
 266	2.6367e+01	5.2793	41.122265	0.000507	5.067069	0.858385	0.000101
 267	2.6467e+01	5.2985	41.247416	0.000628	6.283166	1.064397	0.000126
 268	2.6567e+01	5.3204	41.356419	0.000547	5.472435	0.927056	0.000110
 269	2.6666e+01	5.3391	41.445235	0.000446	4.459021	0.755379	0.000089
 270	2.6765e+01	5.3585	41.546164	0.000507	5.067069	0.858385	0.000101
 271	2.6865e+01	5.3783	41.655167	0.000547	5.472435	0.927056	0.000110
 272	2.6965e+01	5.3986	41.772243	0.000588	5.877800	0.995726	0.000118
 273	2.7064e+01	5.4176	41.913543	0.000709	7.093897	1.201739	0.000142
 274	2.7163e+01	5.4382	42.002360	0.000446	4.459021	0.755379	0.000089
 275	2.7263e+01	5.4571	42.083103	0.000405	4.053655	0.686708	0.000081
 276	2.7363e+01	5.4778	42.212291	0.000649	6.485849	1.098733	0.000130
 277	2.7462e+01	5.4979	42.325331	0.000568	5.675118	0.961391	0.000114
 278	2.7561e+01	5.5183	42.414148	0.000446	4.459021	0.755379	0.000089
 279	2.7661e+01	5.5389	42.551411	0.000689	6.891214	1.167403	0.000138
 280	2.7761e+01	5.5581	42.628116	0.000385	3.850973	0.652372	0.000077
 281	2.7860e+01	5.5778	42.753267	0.000628	6.283166	1.064397	0.000126
 282	2.7959e+01	5.5978	42.817862	0.000324	3.242924	0.549366	0.000065
 283	2.8059e+01	5.6176	42.947050	0.000649	6.485849	1.098733	0.000130
 284	2.8159e+01	5.6380	43.060090	0.000568	5.675118	0.961391	0.000114
 285	2.8258e+01	5.6568	43.189278	0.000649	6.485849	1.098733	0.000130
 286	2.8358e+01	5.6767	43.282132	0.000466	4.661704	0.789714	0.000093
 287	2.8457e+01	5.6969	43.391135	0.000547	5.472435	0.927056	0.000110
 288	2.8556e+01	5.7171	43.508212	0.000588	5.877800	0.995726	0.000118
 289	2.8656e+01	5.7377	43.609140	0.000507	5.067069	0.858385	0.000101
 290	2.8756e+01	5.7563	43.701994	0.000466	4.661704	0.789714	0.000093
 291	2.8855e+01	5.7777	43.778700	0.000385	3.850973	0.652372	0.000077
 292	2.8954e+01	5.7964	43.887703	0.000547	5.472435	0.927056	0.000110
 293	2.9054e+01	5.8157	44.000742	0.000568	5.675118	0.961391	0.000114
 294	2.9154e+01	5.8369	44.073411	0.000365	3.648290	0.618037	0.000073
 295	2.9253e+01	5.8568	44.198562	0.000628	6.283166	1.064397	0.000126
 296	2.9352e+01	5.8770	44.299490	0.000507	5.067069	0.858385	0.000101
 297	2.9452e+01	5.8961	44.392345	0.000466	4.661704	0.789714	0.000093
 298	2.9552e+01	5.9158	44.541719	0.000750	7.499262	1.270409	0.000150
 299	2.9651e+01	5.9356	44.614387	0.000365	3.648290	0.618037	0.000073
 300	2.9750e+01	5.9563	44.719353	0.000527	5.269752	0.892720	0.000105
 301	2.9850e+01	5.9759	44.840467	0.000608	6.080483	1.030062	0.000122
 302	2.9950e+01	5.9963	44.993878	0.000770	7.701945	1.304745	0.000154
 303	3.0049e+01	6.0163	45.054435	0.000304	3.040242	0.515031	0.000061
 304	3.0148e+01	6.0355	45.171512	0.000588	5.877800	0.995726	0.000118
 305	3.0248e+01	6.0564	45.272440	0.000507	5.067069	0.858385	0.000101
 306	3.0348e+01	6.0754	45.381443	0.000547	5.472435	0.927056	0.000110
 307	3.0447e+01	6.0961	45.478334	0.000486	4.864386	0.824049	0.000097
 308	3.0547e+01	6.1162	45.546965	0.000345	3.445607	0.583702	0.000069
 309	3.0646e+01	6.1358	45.668079	0.000608	6.080483	1.030062	0.000122
 310	3.0745e+01	6.1552	45.769008	0.000507	5.067069	0.858385	0.000101
 311	3.0845e+01	6.1749	45.938568	0.000851	8.512676	1.442086	0.000170
 312	3.0945e+01	6.1953	45.966828	0.000142	1.418779	0.240348	0.000028
 313	3.1044e+01	6.2154	46.091979	0.000628	6.283166	1.064397	0.000126
 314	3.1143e+01	6.2354	46.196944	0.000527	5.269752	0.892720	0.000105
 315	3.1243e+01	6.2554	46.285761	0.000446	4.459021	0.755379	0.000089
 316	3.1343e+01	6.2746	46.431098	0.000730	7.296580	1.236074	0.000146
 317	3.1442e+01	6.2951	46.511841	0.000405	4.053655	0.686708	0.000081
 318	3.1541e+01	6.3142	46.620844	0.000547	5.472435	0.927056	0.000110
 319	3.1641e+01	6.3345	46.717735	0.000486	4.864386	0.824049	0.000097
 320	3.1741e+01	6.3534	46.778292	0.000304	3.040242	0.515031	0.000061
 321	3.1840e+01	6.3753	46.899406	0.000608	6.080483	1.030062	0.000122
 322	3.1939e+01	6.3943	47.012446	0.000568	5.675118	0.961391	0.000114
 323	3.2039e+01	6.4140	47.113374	0.000507	5.067069	0.858385	0.000101
 324	3.2139e+01	6.4344	47.194117	0.000405	4.053655	0.686708	0.000081
 325	3.2238e+01	6.4543	47.363676	0.000851	8.512676	1.442086	0.000170
 326	3.2337e+01	6.4744	47.424234	0.000304	3.040242	0.515031	0.000061
 327	3.2437e+01	6.4922	47.529199	0.000527	5.269752	0.892720	0.000105
 328	3.2536e+01	6.5130	47.638202	0.000547	5.472435	0.927056	0.000110
 329	3.2636e+01	6.5386	47.710870	0.000365	3.648290	0.618037	0.000073
 330	3.2736e+01	6.5539	47.836021	0.000628	6.283166	1.064397	0.000126
 331	3.2835e+01	6.5728	47.953098	0.000588	5.877800	0.995726	0.000118
 332	3.2934e+01	6.5935	48.045952	0.000466	4.661704	0.789714	0.000093
 333	3.3034e+01	6.6119	48.134769	0.000446	4.459021	0.755379	0.000089
 334	3.3133e+01	6.6332	48.223586	0.000446	4.459021	0.755379	0.000089
 335	3.3233e+01	6.6530	48.332589	0.000547	5.472435	0.927056	0.000110
 336	3.3333e+01	6.6735	48.397183	0.000324	3.242924	0.549366	0.000065
 337	3.3432e+01	6.6936	48.530409	0.000669	6.688531	1.133068	0.000134
 338	3.3532e+01	6.7126	48.667671	0.000689	6.891214	1.167403	0.000138
 339	3.3631e+01	6.7333	48.724191	0.000284	2.837559	0.480695	0.000057
 340	3.3730e+01	6.7522	48.817045	0.000466	4.661704	0.789714	0.000093
 341	3.3830e+01	6.7727	48.954308	0.000689	6.891214	1.167403	0.000138
 342	3.3929e+01	6.7927	49.059273	0.000527	5.269752	0.892720	0.000105
 343	3.4029e+01	6.8131	49.144053	0.000426	4.256338	0.721043	0.000085
 344	3.4129e+01	6.8317	49.257093	0.000568	5.675118	0.961391	0.000114
 345	3.4228e+01	6.8526	49.345910	0.000446	4.459021	0.755379	0.000089
 346	3.4328e+01	6.8725	49.422616	0.000385	3.850973	0.652372	0.000077
 347	3.4427e+01	6.8925	49.567953	0.000730	7.296580	1.236074	0.000146
 348	3.4526e+01	6.9126	49.648695	0.000405	4.053655	0.686708	0.000081
 349	3.4626e+01	6.9315	49.757698	0.000547	5.472435	0.927056	0.000110
 350	3.4725e+01	6.9524	49.842478	0.000426	4.256338	0.721043	0.000085
 351	3.4825e+01	6.9730	49.923221	0.000405	4.053655	0.686708	0.000081
 352	3.4925e+01	6.9915	50.060483	0.000689	6.891214	1.167403	0.000138
 353	3.5024e+01	7.0118	50.149300	0.000446	4.459021	0.755379	0.000089
 354	3.5123e+01	7.0310	50.238117	0.000446	4.459021	0.755379	0.000089
 355	3.5223e+01	7.0523	50.298674	0.000304	3.040242	0.515031	0.000061
 356	3.5322e+01	7.0715	50.411714	0.000568	5.675118	0.961391	0.000114
 357	3.5422e+01	7.0910	50.536865	0.000628	6.283166	1.064397	0.000126
 358	3.5522e+01	7.1123	50.633756	0.000486	4.864386	0.824049	0.000097
 359	3.5621e+01	7.1317	50.722573	0.000446	4.459021	0.755379	0.000089
 360	3.5721e+01	7.1508	50.839650	0.000588	5.877800	0.995726	0.000118
 361	3.5820e+01	7.1709	50.928467	0.000446	4.459021	0.755379	0.000089
 362	3.5919e+01	7.1909	51.005173	0.000385	3.850973	0.652372	0.000077
 363	3.6019e+01	7.2111	51.126287	0.000608	6.080483	1.030062	0.000122
 364	3.6118e+01	7.2298	51.198955	0.000365	3.648290	0.618037	0.000073
 365	3.6218e+01	7.2515	51.356404	0.000790	7.904628	1.339080	0.000158
 366	3.6318e+01	7.2706	51.376589	0.000101	1.013414	0.171677	0.000020
 367	3.6417e+01	7.2910	51.505778	0.000649	6.485849	1.098733	0.000130
 368	3.6517e+01	7.3106	51.626892	0.000608	6.080483	1.030062	0.000122
 369	3.6616e+01	7.3306	51.727820	0.000507	5.067069	0.858385	0.000101
 370	3.6715e+01	7.3493	51.832786	0.000527	5.269752	0.892720	0.000105
 371	3.6815e+01	7.3693	51.869120	0.000182	1.824145	0.309019	0.000037
 372	3.6914e+01	7.3896	51.994271	0.000628	6.283166	1.064397	0.000126
 373	3.7014e+01	7.4093	52.107311	0.000568	5.675118	0.961391	0.000114
 374	3.7114e+01	7.4300	52.159794	0.000263	2.634876	0.446360	0.000053
 375	3.7213e+01	7.4490	52.276871	0.000588	5.877800	0.995726	0.000118
 376	3.7313e+01	7.4694	52.357613	0.000405	4.053655	0.686708	0.000081
 377	3.7412e+01	7.4903	52.494876	0.000689	6.891214	1.167403	0.000138
 378	3.7511e+01	7.5095	52.551396	0.000284	2.837559	0.480695	0.000057
 379	3.7611e+01	7.5296	52.700770	0.000750	7.499262	1.270409	0.000150
 380	3.7711e+01	7.5493	52.769401	0.000345	3.445607	0.583702	0.000069
 381	3.7810e+01	7.5697	52.910701	0.000709	7.093897	1.201739	0.000142
 382	3.7910e+01	7.5897	52.951072	0.000203	2.026828	0.343354	0.000041
 383	3.8009e+01	7.6083	53.084298	0.000669	6.688531	1.133068	0.000134
 384	3.8108e+01	7.6281	53.173115	0.000446	4.459021	0.755379	0.000089
 385	3.8208e+01	7.6490	53.245783	0.000365	3.648290	0.618037	0.000073
 386	3.8307e+01	7.6678	53.314415	0.000345	3.445607	0.583702	0.000069
 387	3.8407e+01	7.6881	53.423417	0.000547	5.472435	0.927056	0.000110
 388	3.8507e+01	7.7094	53.544531	0.000608	6.080483	1.030062	0.000122
 389	3.8606e+01	7.7290	53.657571	0.000568	5.675118	0.961391	0.000114
 390	3.8706e+01	7.7491	53.726202	0.000345	3.445607	0.583702	0.000069
 391	3.8805e+01	7.7678	53.819057	0.000466	4.661704	0.789714	0.000093
 392	3.8904e+01	7.7891	53.924022	0.000527	5.269752	0.892720	0.000105
 393	3.9004e+01	7.8095	54.016876	0.000466	4.661704	0.789714	0.000093
 394	3.9103e+01	7.8273	54.125879	0.000547	5.472435	0.927056	0.000110
 395	3.9203e+01	7.8486	54.210659	0.000426	4.256338	0.721043	0.000085
 396	3.9303e+01	7.8687	54.315624	0.000527	5.269752	0.892720	0.000105
 397	3.9402e+01	7.8881	54.388293	0.000365	3.648290	0.618037	0.000073
 398	3.9502e+01	7.9067	54.501332	0.000568	5.675118	0.961391	0.000114
 399	3.9601e+01	7.9297	54.582075	0.000405	4.053655	0.686708	0.000081
 400	3.9700e+01	7.9474	54.666855	0.000426	4.256338	0.721043	0.000085
 401	3.9800e+01	7.9675	54.775858	0.000547	5.472435	0.927056	0.000110
 402	3.9900e+01	7.9876	54.864675	0.000446	4.459021	0.755379	0.000089
 403	3.9999e+01	8.0081	54.961566	0.000486	4.864386	0.824049	0.000097
 404	4.0099e+01	8.0270	55.046346	0.000426	4.256338	0.721043	0.000085
 405	4.0198e+01	8.0477	55.159386	0.000568	5.675118	0.961391	0.000114
 406	4.0297e+01	8.0674	55.240128	0.000405	4.053655	0.686708	0.000081
 407	4.0397e+01	8.0872	55.328945	0.000446	4.459021	0.755379	0.000089
 408	4.0496e+01	8.1073	55.458134	0.000649	6.485849	1.098733	0.000130
 409	4.0596e+01	8.1260	55.526765	0.000345	3.445607	0.583702	0.000069
 410	4.0696e+01	8.1464	55.639805	0.000568	5.675118	0.961391	0.000114
 411	4.0795e+01	8.1675	55.696325	0.000284	2.837559	0.480695	0.000057
 412	4.0895e+01	8.1885	55.813402	0.000588	5.877800	0.995726	0.000118
 413	4.0994e+01	8.2068	55.894144	0.000405	4.053655	0.686708	0.000081
 414	4.1093e+01	8.2270	56.015258	0.000608	6.080483	1.030062	0.000122
 415	4.1193e+01	8.2471	56.116187	0.000507	5.067069	0.858385	0.000101
 416	4.1292e+01	8.2662	56.156558	0.000203	2.026828	0.343354	0.000041
 417	4.1392e+01	8.2867	56.253449	0.000486	4.864386	0.824049	0.000097
 418	4.1492e+01	8.3067	56.374563	0.000608	6.080483	1.030062	0.000122
 419	4.1591e+01	8.3256	56.435120	0.000304	3.040242	0.515031	0.000061
 420	4.1691e+01	8.3454	56.536049	0.000507	5.067069	0.858385	0.000101
 421	4.1790e+01	8.3660	56.620829	0.000426	4.256338	0.721043	0.000085
 422	4.1889e+01	8.3852	56.705609	0.000426	4.256338	0.721043	0.000085
 423	4.1989e+01	8.4058	56.818648	0.000568	5.675118	0.961391	0.000114
 424	4.2089e+01	8.4253	56.935725	0.000588	5.877800	0.995726	0.000118
 425	4.2188e+01	8.4458	57.048765	0.000568	5.675118	0.961391	0.000114
 426	4.2288e+01	8.4652	57.125471	0.000385	3.850973	0.652372	0.000077
 427	4.2387e+01	8.4853	57.169879	0.000223	2.229510	0.377689	0.000045
 428	4.2486e+01	8.5052	57.266770	0.000486	4.864386	0.824049	0.000097
 429	4.2586e+01	8.5256	57.367699	0.000507	5.067069	0.858385	0.000101
 430	4.2685e+01	8.5451	57.448442	0.000405	4.053655	0.686708	0.000081
 431	4.2785e+01	8.5661	57.577630	0.000649	6.485849	1.098733	0.000130
 432	4.2885e+01	8.5847	57.646261	0.000345	3.445607	0.583702	0.000069
 433	4.2984e+01	8.6043	57.735078	0.000446	4.459021	0.755379	0.000089
 434	4.3084e+01	8.6231	57.803709	0.000345	3.445607	0.583702	0.000069
 435	4.3183e+01	8.6443	57.912712	0.000547	5.472435	0.927056	0.000110
 436	4.3282e+01	8.6648	58.021715	0.000547	5.472435	0.927056	0.000110
 437	4.3382e+01	8.6845	58.094383	0.000365	3.648290	0.618037	0.000073
 438	4.3481e+01	8.7051	58.175126	0.000405	4.053655	0.686708	0.000081
 439	4.3581e+01	8.7241	58.259906	0.000426	4.256338	0.721043	0.000085
 440	4.3681e+01	8.7451	58.364871	0.000527	5.269752	0.892720	0.000105
 441	4.3780e+01	8.7650	58.445614	0.000405	4.053655	0.686708	0.000081
 442	4.3880e+01	8.7853	58.542505	0.000486	4.864386	0.824049	0.000097
 443	4.3979e+01	8.8052	58.631322	0.000446	4.459021	0.755379	0.000089
 444	4.4078e+01	8.8245	58.744362	0.000568	5.675118	0.961391	0.000114
 445	4.4178e+01	8.8439	58.845291	0.000507	5.067069	0.858385	0.000101
 446	4.4278e+01	8.8642	58.905848	0.000304	3.040242	0.515031	0.000061
 447	4.4377e+01	8.8831	58.966405	0.000304	3.040242	0.515031	0.000061
 448	4.4477e+01	8.9036	59.079444	0.000568	5.675118	0.961391	0.000114
 449	4.4576e+01	8.9238	59.192484	0.000568	5.675118	0.961391	0.000114
 450	4.4675e+01	8.9426	59.257078	0.000324	3.242924	0.549366	0.000065
 451	4.4775e+01	8.9635	59.349932	0.000466	4.661704	0.789714	0.000093
 452	4.4874e+01	8.9822	59.434712	0.000426	4.256338	0.721043	0.000085
 453	4.4974e+01	9.0029	59.535641	0.000507	5.067069	0.858385	0.000101
 454	4.5074e+01	9.0225	59.604272	0.000345	3.445607	0.583702	0.000069
 455	4.5173e+01	9.0434	59.753646	0.000750	7.499262	1.270409	0.000150
 456	4.5273e+01	9.0630	59.777869	0.000122	1.216097	0.206012	0.000024
 457	4.5372e+01	9.0824	59.850537	0.000365	3.648290	0.618037	0.000073
 458	4.5471e+01	9.1022	59.983763	0.000669	6.688531	1.133068	0.000134
 459	4.5571e+01	9.1225	60.060468	0.000385	3.850973	0.652372	0.000077
 460	4.5670e+01	9.1430	60.137174	0.000385	3.850973	0.652372	0.000077
 461	4.5770e+01	9.1633	60.246177	0.000547	5.472435	0.927056	0.000110
 462	4.5870e+01	9.1828	60.282511	0.000182	1.824145	0.309019	0.000037
 463	4.5969e+01	9.2030	60.395551	0.000568	5.675118	0.961391	0.000114
 464	4.6069e+01	9.2219	60.528776	0.000669	6.688531	1.133068	0.000134
 465	4.6168e+01	9.2426	60.585296	0.000284	2.837559	0.480695	0.000057
 466	4.6267e+01	9.2622	60.686224	0.000507	5.067069	0.858385	0.000101
 467	4.6367e+01	9.2822	60.775041	0.000446	4.459021	0.755379	0.000089
 468	4.6467e+01	9.3018	60.847710	0.000365	3.648290	0.618037	0.000073
 469	4.6566e+01	9.3214	60.912304	0.000324	3.242924	0.549366	0.000065
 470	4.6666e+01	9.3408	61.045529	0.000669	6.688531	1.133068	0.000134
 471	4.6765e+01	9.3621	61.106087	0.000304	3.040242	0.515031	0.000061
 472	4.6864e+01	9.3809	61.215089	0.000547	5.472435	0.927056	0.000110
 473	4.6964e+01	9.4016	61.291795	0.000385	3.850973	0.652372	0.000077
 474	4.7063e+01	9.4206	61.408872	0.000588	5.877800	0.995726	0.000118
 475	4.7163e+01	9.4415	61.493652	0.000426	4.256338	0.721043	0.000085
 476	4.7263e+01	9.4607	61.578431	0.000426	4.256338	0.721043	0.000085
 477	4.7362e+01	9.4811	61.638988	0.000304	3.040242	0.515031	0.000061
 478	4.7462e+01	9.5002	61.723768	0.000426	4.256338	0.721043	0.000085
 479	4.7561e+01	9.5215	61.836808	0.000568	5.675118	0.961391	0.000114
 480	4.7660e+01	9.5405	61.893328	0.000284	2.837559	0.480695	0.000057
 481	4.7760e+01	9.5603	61.957922	0.000324	3.242924	0.549366	0.000065
 482	4.7859e+01	9.5804	62.087111	0.000649	6.485849	1.098733	0.000130
 483	4.7959e+01	9.5991	62.184002	0.000486	4.864386	0.824049	0.000097
 484	4.8059e+01	9.6202	62.260707	0.000385	3.850973	0.652372	0.000077
 485	4.8158e+01	9.6394	62.325302	0.000324	3.242924	0.549366	0.000065
 486	4.8258e+01	9.6602	62.446416	0.000608	6.080483	1.030062	0.000122
 487	4.8357e+01	9.6809	62.519084	0.000365	3.648290	0.618037	0.000073
 488	4.8456e+01	9.6989	62.620012	0.000507	5.067069	0.858385	0.000101
 489	4.8556e+01	9.7195	62.696718	0.000385	3.850973	0.652372	0.000077
 490	4.8656e+01	9.7396	62.785535	0.000446	4.459021	0.755379	0.000089
 491	4.8755e+01	9.7596	62.850129	0.000324	3.242924	0.549366	0.000065
 492	4.8855e+01	9.7791	62.983355	0.000669	6.688531	1.133068	0.000134
 493	4.8954e+01	9.7998	63.027763	0.000223	2.229510	0.377689	0.000045
 494	4.9053e+01	9.8193	63.116580	0.000446	4.459021	0.755379	0.000089
 495	4.9153e+01	9.8395	63.237694	0.000608	6.080483	1.030062	0.000122
 496	4.9252e+01	9.8597	63.302288	0.000324	3.242924	0.549366	0.000065
 497	4.9352e+01	9.8792	63.374957	0.000365	3.648290	0.618037	0.000073
 498	4.9452e+01	9.8999	63.443588	0.000345	3.445607	0.583702	0.000069
 499	4.9551e+01	9.9191	63.568739	0.000628	6.283166	1.064397	0.000126
 500	4.9651e+01	9.9392	63.637371	0.000345	3.445607	0.583702	0.000069
 501	4.9750e+01	9.9587	63.742336	0.000527	5.269752	0.892720	0.000105
 502	4.9849e+01	9.9805	63.810967	0.000345	3.445607	0.583702	0.000069
 503	4.9949e+01	9.9984	63.899784	0.000446	4.459021	0.755379	0.000089
 504	5.0048e+01	9.9792	63.847302	0.000263	2.634876	0.446360	-0.000053
 505	5.0148e+01	9.9585	63.782708	0.000324	3.242924	0.549366	-0.000065
 506	5.0248e+01	9.9381	63.685816	0.000486	4.864386	0.824049	-0.000097
 507	5.0347e+01	9.9186	63.669668	0.000081	0.810731	0.137342	-0.000016
 508	5.0447e+01	9.8987	63.601036	0.000345	3.445607	0.583702	-0.000069
 509	5.0546e+01	9.8793	63.544517	0.000284	2.837559	0.480695	-0.000057
 510	5.0645e+01	9.8592	63.451662	0.000466	4.661704	0.789714	-0.000093
 511	5.0745e+01	9.8402	63.399180	0.000263	2.634876	0.446360	-0.000053
 512	5.0844e+01	9.8194	63.342660	0.000284	2.837559	0.480695	-0.000057
 513	5.0944e+01	9.7998	63.274028	0.000345	3.445607	0.583702	-0.000069
 514	5.1044e+01	9.7791	63.201360	0.000365	3.648290	0.618037	-0.000073
 515	5.1143e+01	9.7598	63.144840	0.000284	2.837559	0.480695	-0.000057
 516	5.1242e+01	9.7393	63.112543	0.000162	1.621462	0.274683	-0.000032
 517	5.1342e+01	9.7195	63.027763	0.000426	4.256338	0.721043	-0.000085
 518	5.1441e+01	9.6999	62.971243	0.000284	2.837559	0.480695	-0.000057
 519	5.1541e+01	9.6809	62.922798	0.000243	2.432193	0.412025	-0.000049
 520	5.1641e+01	9.6601	62.854166	0.000345	3.445607	0.583702	-0.000069
 521	5.1740e+01	9.6402	62.741127	0.000568	5.675118	0.961391	-0.000114
 522	5.1840e+01	9.6204	62.692681	0.000243	2.432193	0.412025	-0.000049
 523	5.1939e+01	9.6008	62.603864	0.000446	4.459021	0.755379	-0.000089
 524	5.2038e+01	9.5801	62.571567	0.000162	1.621462	0.274683	-0.000032
 525	5.2138e+01	9.5589	62.486787	0.000426	4.256338	0.721043	-0.000085
 526	5.2237e+01	9.5396	62.430267	0.000284	2.837559	0.480695	-0.000057
 527	5.2337e+01	9.5209	62.345487	0.000426	4.256338	0.721043	-0.000085
 528	5.2437e+01	9.5016	62.280893	0.000324	3.242924	0.549366	-0.000065
 529	5.2536e+01	9.4808	62.184002	0.000486	4.864386	0.824049	-0.000097
 530	5.2636e+01	9.4611	62.151705	0.000162	1.621462	0.274683	-0.000032
 531	5.2735e+01	9.4415	62.066925	0.000426	4.256338	0.721043	-0.000085
 532	5.2834e+01	9.4215	62.018479	0.000243	2.432193	0.412025	-0.000049
 533	5.2934e+01	9.4016	61.909477	0.000547	5.472435	0.927056	-0.000110
 534	5.3033e+01	9.3817	61.881217	0.000142	1.418779	0.240348	-0.000028
 535	5.3133e+01	9.3610	61.788362	0.000466	4.661704	0.789714	-0.000093
 536	5.3233e+01	9.3418	61.723768	0.000324	3.242924	0.549366	-0.000065
 537	5.3332e+01	9.3217	61.647063	0.000385	3.850973	0.652372	-0.000077
 538	5.3431e+01	9.3019	61.566320	0.000405	4.053655	0.686708	-0.000081
 539	5.3531e+01	9.2822	61.513837	0.000263	2.634876	0.446360	-0.000053
 540	5.3630e+01	9.2609	61.441169	0.000365	3.648290	0.618037	-0.000073
 541	5.3730e+01	9.2422	61.372537	0.000345	3.445607	0.583702	-0.000069
 542	5.3830e+01	9.2213	61.295832	0.000385	3.850973	0.652372	-0.000077
 543	5.3929e+01	9.2017	61.202978	0.000466	4.661704	0.789714	-0.000093
 544	5.4029e+01	9.1817	61.118198	0.000426	4.256338	0.721043	-0.000085
 545	5.4128e+01	9.1616	61.081864	0.000182	1.824145	0.309019	-0.000037
 546	5.4227e+01	9.1425	61.021307	0.000304	3.040242	0.515031	-0.000061
 547	5.4327e+01	9.1225	60.920378	0.000507	5.067069	0.858385	-0.000101
 548	5.4426e+01	9.1022	60.835598	0.000426	4.256338	0.721043	-0.000085
 549	5.4526e+01	9.0823	60.787153	0.000243	2.432193	0.412025	-0.000049
 550	5.4626e+01	9.0625	60.702373	0.000426	4.256338	0.721043	-0.000085
 551	5.4725e+01	9.0422	60.597407	0.000527	5.269752	0.892720	-0.000105
 552	5.4825e+01	9.0228	60.573185	0.000122	1.216097	0.206012	-0.000024
 553	5.4924e+01	9.0031	60.468219	0.000527	5.269752	0.892720	-0.000105
 554	5.5023e+01	8.9820	60.415736	0.000263	2.634876	0.446360	-0.000053
 555	5.5123e+01	8.9626	60.322882	0.000466	4.661704	0.789714	-0.000093
 556	5.5222e+01	8.9426	60.266362	0.000284	2.837559	0.480695	-0.000057
 557	5.5322e+01	8.9239	60.189657	0.000385	3.850973	0.652372	-0.000077
 558	5.5422e+01	8.9045	60.141211	0.000243	2.432193	0.412025	-0.000049
 559	5.5521e+01	8.8831	60.060468	0.000405	4.053655	0.686708	-0.000081
 560	5.5620e+01	8.8635	59.951466	0.000547	5.472435	0.927056	-0.000110
 561	5.5720e+01	8.8440	59.894946	0.000284	2.837559	0.480695	-0.000057
 562	5.5819e+01	8.8245	59.818240	0.000385	3.850973	0.652372	-0.000077
 563	5.5919e+01	8.8046	59.745572	0.000365	3.648290	0.618037	-0.000073
 564	5.6019e+01	8.7842	59.668866	0.000385	3.850973	0.652372	-0.000077
 565	5.6118e+01	8.7647	59.596198	0.000365	3.648290	0.618037	-0.000073
 566	5.6218e+01	8.7441	59.519492	0.000385	3.850973	0.652372	-0.000077
 567	5.6317e+01	8.7238	59.442787	0.000385	3.850973	0.652372	-0.000077
 568	5.6416e+01	8.7051	59.382230	0.000304	3.040242	0.515031	-0.000061
 569	5.6516e+01	8.6855	59.293413	0.000446	4.459021	0.755379	-0.000089
 570	5.6615e+01	8.6646	59.228818	0.000324	3.242924	0.549366	-0.000065
 571	5.6715e+01	8.6446	59.140001	0.000446	4.459021	0.755379	-0.000089
 572	5.6815e+01	8.6253	59.059259	0.000405	4.053655	0.686708	-0.000081
 573	5.6914e+01	8.6050	58.990627	0.000345	3.445607	0.583702	-0.000069
 574	5.7014e+01	8.5851	58.885662	0.000527	5.269752	0.892720	-0.000105
 575	5.7113e+01	8.5645	58.833179	0.000263	2.634876	0.446360	-0.000053
 576	5.7212e+01	8.5453	58.780696	0.000263	2.634876	0.446360	-0.000053
 577	5.7312e+01	8.5260	58.683805	0.000486	4.864386	0.824049	-0.000097
 578	5.7411e+01	8.5059	58.611137	0.000365	3.648290	0.618037	-0.000073
 579	5.7511e+01	8.4870	58.558654	0.000263	2.634876	0.446360	-0.000053
 580	5.7611e+01	8.4653	58.453688	0.000527	5.269752	0.892720	-0.000105
 581	5.7710e+01	8.4454	58.405243	0.000243	2.432193	0.412025	-0.000049
 582	5.7809e+01	8.4254	58.324500	0.000405	4.053655	0.686708	-0.000081
 583	5.7909e+01	8.4060	58.231646	0.000466	4.661704	0.789714	-0.000093
 584	5.8008e+01	8.3855	58.154940	0.000385	3.850973	0.652372	-0.000077
 585	5.8108e+01	8.3652	58.082272	0.000365	3.648290	0.618037	-0.000073
 586	5.8208e+01	8.3450	58.001529	0.000405	4.053655	0.686708	-0.000081
 587	5.8307e+01	8.3248	57.912712	0.000446	4.459021	0.755379	-0.000089
 588	5.8407e+01	8.3075	57.852155	0.000304	3.040242	0.515031	-0.000061
 589	5.8506e+01	8.2866	57.767375	0.000426	4.256338	0.721043	-0.000085
 590	5.8605e+01	8.2666	57.706818	0.000304	3.040242	0.515031	-0.000061
 591	5.8705e+01	8.2471	57.626076	0.000405	4.053655	0.686708	-0.000081
 592	5.8804e+01	8.2257	57.541296	0.000426	4.256338	0.721043	-0.000085
 593	5.8904e+01	8.2061	57.456516	0.000426	4.256338	0.721043	-0.000085
 594	5.9004e+01	8.1862	57.375773	0.000405	4.053655	0.686708	-0.000081
 595	5.9103e+01	8.1672	57.262733	0.000568	5.675118	0.961391	-0.000114
 596	5.9203e+01	8.1477	57.214288	0.000243	2.432193	0.412025	-0.000049
 597	5.9302e+01	8.1280	57.157768	0.000284	2.837559	0.480695	-0.000057
 598	5.9401e+01	8.1075	57.052802	0.000527	5.269752	0.892720	-0.000105
 599	5.9501e+01	8.0874	56.943800	0.000547	5.472435	0.927056	-0.000110
 600	5.9600e+01	8.0666	56.883243	0.000304	3.040242	0.515031	-0.000061
 601	5.9700e+01	8.0477	56.790388	0.000466	4.661704	0.789714	-0.000093
 602	5.9800e+01	8.0267	56.717720	0.000365	3.648290	0.618037	-0.000073
 603	5.9899e+01	8.0079	56.649089	0.000345	3.445607	0.583702	-0.000069
 604	5.9998e+01	7.9883	56.552197	0.000486	4.864386	0.824049	-0.000097
 605	6.0098e+01	7.9680	56.467418	0.000426	4.256338	0.721043	-0.000085
 606	6.0197e+01	7.9489	56.406861	0.000304	3.040242	0.515031	-0.000061
 607	6.0297e+01	7.9272	56.326118	0.000405	4.053655	0.686708	-0.000081
 608	6.0397e+01	7.9069	56.241338	0.000426	4.256338	0.721043	-0.000085
 609	6.0496e+01	7.8881	56.180781	0.000304	3.040242	0.515031	-0.000061
 610	6.0596e+01	7.8690	56.067741	0.000568	5.675118	0.961391	-0.000114
 611	6.0695e+01	7.8477	55.995073	0.000365	3.648290	0.618037	-0.000073
 612	6.0794e+01	7.8276	55.890107	0.000527	5.269752	0.892720	-0.000105
 613	6.0894e+01	7.8078	55.849736	0.000203	2.026828	0.343354	-0.000041
 614	6.0993e+01	7.7888	55.748807	0.000507	5.067069	0.858385	-0.000101
 615	6.1093e+01	7.7691	55.651916	0.000486	4.864386	0.824049	-0.000097
 616	6.1193e+01	7.7482	55.603471	0.000243	2.432193	0.412025	-0.000049
 617	6.1292e+01	7.7292	55.502542	0.000507	5.067069	0.858385	-0.000101
 618	6.1392e+01	7.7093	55.425837	0.000385	3.850973	0.652372	-0.000077
 619	6.1491e+01	7.6893	55.316834	0.000547	5.472435	0.927056	-0.000110
 620	6.1590e+01	7.6694	55.248203	0.000345	3.445607	0.583702	-0.000069
 621	6.1690e+01	7.6493	55.151311	0.000486	4.864386	0.824049	-0.000097
 622	6.1789e+01	7.6292	55.070569	0.000405	4.053655	0.686708	-0.000081
 623	6.1889e+01	7.6090	55.018086	0.000263	2.634876	0.446360	-0.000053
 624	6.1989e+01	7.5896	54.884860	0.000669	6.688531	1.133068	-0.000134
 625	6.2088e+01	7.5690	54.860638	0.000122	1.216097	0.206012	-0.000024
 626	6.2188e+01	7.5490	54.796043	0.000324	3.242924	0.549366	-0.000065
 627	6.2287e+01	7.5288	54.678966	0.000588	5.877800	0.995726	-0.000118
 628	6.2386e+01	7.5100	54.578038	0.000507	5.067069	0.858385	-0.000101
 629	6.2486e+01	7.4909	54.493258	0.000426	4.256338	0.721043	-0.000085
 630	6.2586e+01	7.4697	54.396367	0.000486	4.864386	0.824049	-0.000097
 631	6.2685e+01	7.4500	54.347921	0.000243	2.432193	0.412025	-0.000049
 632	6.2785e+01	7.4302	54.251030	0.000486	4.864386	0.824049	-0.000097
 633	6.2884e+01	7.4100	54.178362	0.000365	3.648290	0.618037	-0.000073
 634	6.2983e+01	7.3907	54.089545	0.000446	4.459021	0.755379	-0.000089
 635	6.3083e+01	7.3702	54.020913	0.000345	3.445607	0.583702	-0.000069
 636	6.3182e+01	7.3498	53.895762	0.000628	6.283166	1.064397	-0.000126
 637	6.3282e+01	7.3300	53.839242	0.000284	2.837559	0.480695	-0.000057
 638	6.3382e+01	7.3104	53.762537	0.000385	3.850973	0.652372	-0.000077
 639	6.3481e+01	7.2903	53.673720	0.000446	4.459021	0.755379	-0.000089
 640	6.3581e+01	7.2710	53.605088	0.000345	3.445607	0.583702	-0.000069
 641	6.3680e+01	7.2512	53.488011	0.000588	5.877800	0.995726	-0.000118
 642	6.3779e+01	7.2308	53.423417	0.000324	3.242924	0.549366	-0.000065
 643	6.3879e+01	7.2102	53.326526	0.000486	4.864386	0.824049	-0.000097
 644	6.3978e+01	7.1914	53.282117	0.000223	2.229510	0.377689	-0.000045
 645	6.4078e+01	7.1700	53.173115	0.000547	5.472435	0.927056	-0.000110
 646	6.4177e+01	7.1507	53.084298	0.000446	4.459021	0.755379	-0.000089
 647	6.4277e+01	7.1313	52.995481	0.000446	4.459021	0.755379	-0.000089
 648	6.4376e+01	7.1111	52.906664	0.000446	4.459021	0.755379	-0.000089
 649	6.4476e+01	7.0919	52.809773	0.000486	4.864386	0.824049	-0.000097
 650	6.4576e+01	7.0704	52.737104	0.000365	3.648290	0.618037	-0.000073
 651	6.4675e+01	7.0515	52.684621	0.000263	2.634876	0.446360	-0.000053
 652	6.4775e+01	7.0313	52.539284	0.000730	7.296580	1.236074	-0.000146
 653	6.4874e+01	7.0118	52.498913	0.000203	2.026828	0.343354	-0.000041
 654	6.4974e+01	6.9922	52.361651	0.000689	6.891214	1.167403	-0.000138
 655	6.5073e+01	6.9714	52.317242	0.000223	2.229510	0.377689	-0.000045
 656	6.5172e+01	6.9510	52.192091	0.000628	6.283166	1.064397	-0.000126
 657	6.5272e+01	6.9321	52.151719	0.000203	2.026828	0.343354	-0.000041
 658	6.5371e+01	6.9120	52.034643	0.000588	5.877800	0.995726	-0.000118
 659	6.5471e+01	6.8911	51.961974	0.000365	3.648290	0.618037	-0.000073
 660	6.5570e+01	6.8719	51.873157	0.000446	4.459021	0.755379	-0.000089
 661	6.5670e+01	6.8523	51.780303	0.000466	4.661704	0.789714	-0.000093
 662	6.5769e+01	6.8322	51.719746	0.000304	3.040242	0.515031	-0.000061
 663	6.5869e+01	6.8121	51.606706	0.000568	5.675118	0.961391	-0.000114
 664	6.5969e+01	6.7922	51.521926	0.000426	4.256338	0.721043	-0.000085
 665	6.6068e+01	6.7729	51.408886	0.000568	5.675118	0.961391	-0.000114
 666	6.6168e+01	6.7520	51.352367	0.000284	2.837559	0.480695	-0.000057
 667	6.6267e+01	6.7324	51.291810	0.000304	3.040242	0.515031	-0.000061
 668	6.6367e+01	6.7123	51.202993	0.000446	4.459021	0.755379	-0.000089
 669	6.6466e+01	6.6930	51.049581	0.000770	7.701945	1.304745	-0.000154
 670	6.6566e+01	6.6735	50.997099	0.000263	2.634876	0.446360	-0.000053
 671	6.6665e+01	6.6528	50.892133	0.000527	5.269752	0.892720	-0.000105
 672	6.6764e+01	6.6326	50.827539	0.000324	3.242924	0.549366	-0.000065
 673	6.6864e+01	6.6126	50.734685	0.000466	4.661704	0.789714	-0.000093
 674	6.6963e+01	6.5936	50.666054	0.000345	3.445607	0.583702	-0.000069
 675	6.7063e+01	6.5733	50.548977	0.000588	5.877800	0.995726	-0.000118
 676	6.7162e+01	6.5533	50.448048	0.000507	5.067069	0.858385	-0.000101
 677	6.7262e+01	6.5346	50.367305	0.000405	4.053655	0.686708	-0.000081
 678	6.7362e+01	6.5142	50.270414	0.000486	4.864386	0.824049	-0.000097
 679	6.7461e+01	6.4935	50.209857	0.000304	3.040242	0.515031	-0.000061
 680	6.7561e+01	6.4742	50.088743	0.000608	6.080483	1.030062	-0.000122
 681	6.7660e+01	6.4538	50.020112	0.000345	3.445607	0.583702	-0.000069
 682	6.7760e+01	6.4336	49.935332	0.000426	4.256338	0.721043	-0.000085
 683	6.7859e+01	6.4132	49.810181	0.000628	6.283166	1.064397	-0.000126
 684	6.7959e+01	6.3935	49.733475	0.000385	3.850973	0.652372	-0.000077
 685	6.8058e+01	6.3747	49.668881	0.000324	3.242924	0.549366	-0.000065
 686	6.8157e+01	6.3537	49.584101	0.000426	4.256338	0.721043	-0.000085
 687	6.8257e+01	6.3350	49.454913	0.000649	6.485849	1.098733	-0.000130
 688	6.8356e+01	6.3148	49.410504	0.000223	2.229510	0.377689	-0.000045
 689	6.8456e+01	6.2959	49.321687	0.000446	4.459021	0.755379	-0.000089
 690	6.8555e+01	6.2749	49.208648	0.000568	5.675118	0.961391	-0.000114
 691	6.8655e+01	6.2547	49.103682	0.000527	5.269752	0.892720	-0.000105
 692	6.8754e+01	6.2349	49.055236	0.000243	2.432193	0.412025	-0.000049
 693	6.8854e+01	6.2154	48.946234	0.000547	5.472435	0.927056	-0.000110
 694	6.8954e+01	6.1950	48.877602	0.000345	3.445607	0.583702	-0.000069
 695	6.9053e+01	6.1761	48.788785	0.000446	4.459021	0.755379	-0.000089
 696	6.9153e+01	6.1559	48.695931	0.000466	4.661704	0.789714	-0.000093
 697	6.9252e+01	6.1361	48.558669	0.000689	6.891214	1.167403	-0.000138
 698	6.9352e+01	6.1153	48.486000	0.000365	3.648290	0.618037	-0.000073
 699	6.9451e+01	6.0957	48.364886	0.000608	6.080483	1.030062	-0.000122
 700	6.9550e+01	6.0762	48.288181	0.000385	3.850973	0.652372	-0.000077
 701	6.9650e+01	6.0558	48.187252	0.000507	5.067069	0.858385	-0.000101
 702	6.9749e+01	6.0346	48.126695	0.000304	3.040242	0.515031	-0.000061
 703	6.9849e+01	6.0157	48.066138	0.000304	3.040242	0.515031	-0.000061
 704	6.9948e+01	5.9963	47.949061	0.000588	5.877800	0.995726	-0.000118
 705	7.0048e+01	5.9768	47.864281	0.000426	4.256338	0.721043	-0.000085
 706	7.0147e+01	5.9563	47.771427	0.000466	4.661704	0.789714	-0.000093
 707	7.0247e+01	5.9361	47.658387	0.000568	5.675118	0.961391	-0.000114
 708	7.0347e+01	5.9168	47.557459	0.000507	5.067069	0.858385	-0.000101
 709	7.0446e+01	5.8971	47.500939	0.000284	2.837559	0.480695	-0.000057
 710	7.0546e+01	5.8776	47.416159	0.000426	4.256338	0.721043	-0.000085
 711	7.0645e+01	5.8575	47.295045	0.000608	6.080483	1.030062	-0.000122
 712	7.0745e+01	5.8369	47.202191	0.000466	4.661704	0.789714	-0.000093
 713	7.0844e+01	5.8168	47.089151	0.000568	5.675118	0.961391	-0.000114
 714	7.0944e+01	5.7966	47.048780	0.000203	2.026828	0.343354	-0.000041
 715	7.1043e+01	5.7769	46.911517	0.000689	6.891214	1.167403	-0.000138
 716	7.1142e+01	5.7558	46.850960	0.000304	3.040242	0.515031	-0.000061
 717	7.1242e+01	5.7369	46.778292	0.000365	3.648290	0.618037	-0.000073
 718	7.1341e+01	5.7174	46.653141	0.000628	6.283166	1.064397	-0.000126
 719	7.1441e+01	5.6973	46.572398	0.000405	4.053655	0.686708	-0.000081
 720	7.1540e+01	5.6765	46.471469	0.000507	5.067069	0.858385	-0.000101
 721	7.1640e+01	5.6576	46.342281	0.000649	6.485849	1.098733	-0.000130
 722	7.1740e+01	5.6373	46.269613	0.000365	3.648290	0.618037	-0.000073
 723	7.1839e+01	5.6182	46.184833	0.000426	4.256338	0.721043	-0.000085
 724	7.1939e+01	5.5976	46.100053	0.000426	4.256338	0.721043	-0.000085
 725	7.2038e+01	5.5769	45.974902	0.000628	6.283166	1.064397	-0.000126
 726	7.2138e+01	5.5589	45.898196	0.000385	3.850973	0.652372	-0.000077
 727	7.2237e+01	5.5379	45.789194	0.000547	5.472435	0.927056	-0.000110
 728	7.2337e+01	5.5176	45.696339	0.000466	4.661704	0.789714	-0.000093
 729	7.2436e+01	5.4983	45.591374	0.000527	5.269752	0.892720	-0.000105
 730	7.2535e+01	5.4786	45.538891	0.000263	2.634876	0.446360	-0.000053
 731	7.2635e+01	5.4578	45.409703	0.000649	6.485849	1.098733	-0.000130
 732	7.2734e+01	5.4380	45.328960	0.000405	4.053655	0.686708	-0.000081
 733	7.2834e+01	5.4183	45.203809	0.000628	6.283166	1.064397	-0.000126
 734	7.2933e+01	5.3989	45.139215	0.000324	3.242924	0.549366	-0.000065
 735	7.3033e+01	5.3790	45.005989	0.000669	6.688531	1.133068	-0.000134
 736	7.3132e+01	5.3587	44.929284	0.000385	3.850973	0.652372	-0.000077
 737	7.3232e+01	5.3387	44.836430	0.000466	4.661704	0.789714	-0.000093
 738	7.3332e+01	5.3179	44.715315	0.000608	6.080483	1.030062	-0.000122
 739	7.3431e+01	5.2979	44.622461	0.000466	4.661704	0.789714	-0.000093
 740	7.3531e+01	5.2789	44.561904	0.000304	3.040242	0.515031	-0.000061
 741	7.3630e+01	5.2589	44.465013	0.000486	4.864386	0.824049	-0.000097
 742	7.3730e+01	5.2391	44.408493	0.000284	2.837559	0.480695	-0.000057
 743	7.3829e+01	5.2184	44.247008	0.000811	8.107311	1.373416	-0.000162
 744	7.3928e+01	5.2000	44.166265	0.000405	4.053655	0.686708	-0.000081
 745	7.4028e+01	5.1785	44.049188	0.000588	5.877800	0.995726	-0.000118
 746	7.4127e+01	5.1587	43.960371	0.000446	4.459021	0.755379	-0.000089
 747	7.4227e+01	5.1385	43.883665	0.000385	3.850973	0.652372	-0.000077
 748	7.4326e+01	5.1191	43.798886	0.000426	4.256338	0.721043	-0.000085
 749	7.4426e+01	5.1000	43.693920	0.000527	5.269752	0.892720	-0.000105
 750	7.4525e+01	5.0799	43.584917	0.000547	5.472435	0.927056	-0.000110
 751	7.4625e+01	5.0591	43.492063	0.000466	4.661704	0.789714	-0.000093
 752	7.4725e+01	5.0394	43.383061	0.000547	5.472435	0.927056	-0.000110
 753	7.4824e+01	5.0196	43.274058	0.000547	5.472435	0.927056	-0.000110
 754	7.4924e+01	5.0008	43.148907	0.000628	6.283166	1.064397	-0.000126
 755	7.5023e+01	4.9809	43.084313	0.000324	3.242924	0.549366	-0.000065
 756	7.5123e+01	4.9606	42.971273	0.000568	5.675118	0.961391	-0.000114
 757	7.5222e+01	4.9410	42.934939	0.000182	1.824145	0.309019	-0.000037
 758	7.5322e+01	4.9199	42.805750	0.000649	6.485849	1.098733	-0.000130
 759	7.5421e+01	4.9008	42.680599	0.000628	6.283166	1.064397	-0.000126
 760	7.5520e+01	4.8803	42.616005	0.000324	3.242924	0.549366	-0.000065
 761	7.5620e+01	4.8614	42.519114	0.000486	4.864386	0.824049	-0.000097
 762	7.5719e+01	4.8399	42.365702	0.000770	7.701945	1.304745	-0.000154
 763	7.5819e+01	4.8204	42.309183	0.000284	2.837559	0.480695	-0.000057
 764	7.5918e+01	4.8006	42.208254	0.000507	5.067069	0.858385	-0.000101
 765	7.6018e+01	4.7813	42.111363	0.000486	4.864386	0.824049	-0.000097
 766	7.6118e+01	4.7604	41.953915	0.000790	7.904628	1.339080	-0.000158
 767	7.6217e+01	4.7404	41.905469	0.000243	2.432193	0.412025	-0.000049
 768	7.6317e+01	4.7216	41.800503	0.000527	5.269752	0.892720	-0.000105
 769	7.6416e+01	4.7006	41.687464	0.000568	5.675118	0.961391	-0.000114
 770	7.6516e+01	4.6816	41.590572	0.000486	4.864386	0.824049	-0.000097
 771	7.6615e+01	4.6615	41.477533	0.000568	5.675118	0.961391	-0.000114
 772	7.6715e+01	4.6409	41.384678	0.000466	4.661704	0.789714	-0.000093
 773	7.6814e+01	4.6221	41.307973	0.000385	3.850973	0.652372	-0.000077
 774	7.6913e+01	4.6012	41.190896	0.000588	5.877800	0.995726	-0.000118
 775	7.7013e+01	4.5821	41.089968	0.000507	5.067069	0.858385	-0.000101
 776	7.7112e+01	4.5618	40.960779	0.000649	6.485849	1.098733	-0.000130
 777	7.7212e+01	4.5415	40.863888	0.000486	4.864386	0.824049	-0.000097
 778	7.7311e+01	4.5215	40.791219	0.000365	3.648290	0.618037	-0.000073
 779	7.7411e+01	4.5024	40.706440	0.000426	4.256338	0.721043	-0.000085
 780	7.7510e+01	4.4820	40.553028	0.000770	7.701945	1.304745	-0.000154
 781	7.7610e+01	4.4624	40.448063	0.000527	5.269752	0.892720	-0.000105
 782	7.7710e+01	4.4427	40.371357	0.000385	3.850973	0.652372	-0.000077
 783	7.7809e+01	4.4214	40.250243	0.000608	6.080483	1.030062	-0.000122
 784	7.7909e+01	4.4027	40.165463	0.000426	4.256338	0.721043	-0.000085
 785	7.8008e+01	4.3829	40.096832	0.000345	3.445607	0.583702	-0.000069
 786	7.8108e+01	4.3630	39.939384	0.000790	7.904628	1.339080	-0.000158
 787	7.8207e+01	4.3431	39.814233	0.000628	6.283166	1.064397	-0.000126
 788	7.8306e+01	4.3228	39.709267	0.000527	5.269752	0.892720	-0.000105
 789	7.8406e+01	4.3019	39.660821	0.000243	2.432193	0.412025	-0.000049
 790	7.8505e+01	4.2838	39.555856	0.000527	5.269752	0.892720	-0.000105
 791	7.8605e+01	4.2625	39.430705	0.000628	6.283166	1.064397	-0.000126
 792	7.8704e+01	4.2431	39.329776	0.000507	5.067069	0.858385	-0.000101
 793	7.8804e+01	4.2226	39.192514	0.000689	6.891214	1.167403	-0.000138
 794	7.8903e+01	4.2030	39.156180	0.000182	1.824145	0.309019	-0.000037
 795	7.9003e+01	4.1829	39.006806	0.000750	7.499262	1.270409	-0.000150
 796	7.9103e+01	4.1634	38.934137	0.000365	3.648290	0.618037	-0.000073
 797	7.9202e+01	4.1444	38.788800	0.000730	7.296580	1.236074	-0.000146
 798	7.9302e+01	4.1234	38.728243	0.000304	3.040242	0.515031	-0.000061
 799	7.9401e+01	4.1032	38.566758	0.000811	8.107311	1.373416	-0.000162
 800	7.9501e+01	4.0824	38.490052	0.000385	3.850973	0.652372	-0.000077
 801	7.9600e+01	4.0642	38.368938	0.000608	6.080483	1.030062	-0.000122
 802	7.9700e+01	4.0431	38.324530	0.000223	2.229510	0.377689	-0.000045
 803	7.9799e+01	4.0238	38.159007	0.000831	8.309994	1.407751	-0.000166
 804	7.9898e+01	4.0049	38.086339	0.000365	3.648290	0.618037	-0.000073
 805	7.9998e+01	3.9841	37.965224	0.000608	6.080483	1.030062	-0.000122
 806	8.0097e+01	3.9645	37.848148	0.000588	5.877800	0.995726	-0.000118
 807	8.0197e+01	3.9448	37.775479	0.000365	3.648290	0.618037	-0.000073
 808	8.0296e+01	3.9249	37.670514	0.000527	5.269752	0.892720	-0.000105
 809	8.0396e+01	3.9043	37.541325	0.000649	6.485849	1.098733	-0.000130
 810	8.0496e+01	3.8839	37.440397	0.000507	5.067069	0.858385	-0.000101
 811	8.0595e+01	3.8641	37.307171	0.000669	6.688531	1.133068	-0.000134
 812	8.0695e+01	3.8432	37.254689	0.000263	2.634876	0.446360	-0.000053
 813	8.0794e+01	3.8248	37.141649	0.000568	5.675118	0.961391	-0.000114
 814	8.0894e+01	3.8038	37.016498	0.000628	6.283166	1.064397	-0.000126
 815	8.0993e+01	3.7856	36.919606	0.000486	4.864386	0.824049	-0.000097
 816	8.1093e+01	3.7650	36.818678	0.000507	5.067069	0.858385	-0.000101
 817	8.1192e+01	3.7457	36.685452	0.000669	6.688531	1.133068	-0.000134
 818	8.1291e+01	3.7252	36.588561	0.000486	4.864386	0.824049	-0.000097
 819	8.1391e+01	3.7047	36.503781	0.000426	4.256338	0.721043	-0.000085
 820	8.1490e+01	3.6855	36.366519	0.000689	6.891214	1.167403	-0.000138
 821	8.1590e+01	3.6662	36.281739	0.000426	4.256338	0.721043	-0.000085
 822	8.1689e+01	3.6459	36.160625	0.000608	6.080483	1.030062	-0.000122
 823	8.1789e+01	3.6250	36.071808	0.000446	4.459021	0.755379	-0.000089
 824	8.1888e+01	3.6053	35.974917	0.000486	4.864386	0.824049	-0.000097
 825	8.1988e+01	3.5851	35.829580	0.000730	7.296580	1.236074	-0.000146
 826	8.2088e+01	3.5654	35.704428	0.000628	6.283166	1.064397	-0.000126
 827	8.2187e+01	3.5459	35.591389	0.000568	5.675118	0.961391	-0.000114
 828	8.2287e+01	3.5259	35.506609	0.000426	4.256338	0.721043	-0.000085
 829	8.2386e+01	3.5065	35.393569	0.000568	5.675118	0.961391	-0.000114
 830	8.2486e+01	3.4859	35.284566	0.000547	5.472435	0.927056	-0.000110
 831	8.2585e+01	3.4661	35.179601	0.000527	5.269752	0.892720	-0.000105
 832	8.2684e+01	3.4462	35.058487	0.000608	6.080483	1.030062	-0.000122
 833	8.2784e+01	3.4274	34.981781	0.000385	3.850973	0.652372	-0.000077
 834	8.2883e+01	3.4063	34.860667	0.000608	6.080483	1.030062	-0.000122
 835	8.2983e+01	3.3862	34.743590	0.000588	5.877800	0.995726	-0.000118
 836	8.3082e+01	3.3666	34.630550	0.000568	5.675118	0.961391	-0.000114
 837	8.3182e+01	3.3454	34.529622	0.000507	5.067069	0.858385	-0.000101
 838	8.3281e+01	3.3267	34.392359	0.000689	6.891214	1.167403	-0.000138
 839	8.3381e+01	3.3071	34.327765	0.000324	3.242924	0.549366	-0.000065
 840	8.3481e+01	3.2868	34.210688	0.000588	5.877800	0.995726	-0.000118
 841	8.3580e+01	3.2672	34.069388	0.000709	7.093897	1.201739	-0.000142
 842	8.3680e+01	3.2464	33.964423	0.000527	5.269752	0.892720	-0.000105
 843	8.3779e+01	3.2264	33.851383	0.000568	5.675118	0.961391	-0.000114
 844	8.3879e+01	3.2063	33.750455	0.000507	5.067069	0.858385	-0.000101
 845	8.3978e+01	3.1860	33.649526	0.000507	5.067069	0.858385	-0.000101
 846	8.4078e+01	3.1666	33.524375	0.000628	6.283166	1.064397	-0.000126
 847	8.4177e+01	3.1482	33.443632	0.000405	4.053655	0.686708	-0.000081
 848	8.4276e+01	3.1283	33.310407	0.000669	6.688531	1.133068	-0.000134
 849	8.4376e+01	3.1080	33.241776	0.000345	3.445607	0.583702	-0.000069
 850	8.4475e+01	3.0872	33.084327	0.000790	7.904628	1.339080	-0.000158
 851	8.4575e+01	3.0688	33.007622	0.000385	3.850973	0.652372	-0.000077
 852	8.4674e+01	3.0478	32.906693	0.000507	5.067069	0.858385	-0.000101
 853	8.4774e+01	3.0282	32.809802	0.000486	4.864386	0.824049	-0.000097
 854	8.4874e+01	3.0079	32.644280	0.000831	8.309994	1.407751	-0.000166
 855	8.4973e+01	2.9873	32.515091	0.000649	6.485849	1.098733	-0.000130
 856	8.5073e+01	2.9684	32.430311	0.000426	4.256338	0.721043	-0.000085
 857	8.5172e+01	2.9490	32.321309	0.000547	5.472435	0.927056	-0.000110
 858	8.5272e+01	2.9289	32.216343	0.000527	5.269752	0.892720	-0.000105
 859	8.5371e+01	2.9085	32.099266	0.000588	5.877800	0.995726	-0.000118
 860	8.5471e+01	2.8886	31.986226	0.000568	5.675118	0.961391	-0.000114
 861	8.5570e+01	2.8688	31.848964	0.000689	6.891214	1.167403	-0.000138
 862	8.5669e+01	2.8492	31.760147	0.000446	4.459021	0.755379	-0.000089
 863	8.5769e+01	2.8281	31.659218	0.000507	5.067069	0.858385	-0.000101
 864	8.5868e+01	2.8078	31.538104	0.000608	6.080483	1.030062	-0.000122
 865	8.5968e+01	2.7888	31.425065	0.000568	5.675118	0.961391	-0.000114
 866	8.6067e+01	2.7692	31.340285	0.000426	4.256338	0.721043	-0.000085
 867	8.6167e+01	2.7489	31.198985	0.000709	7.093897	1.201739	-0.000142
 868	8.6266e+01	2.7287	31.065760	0.000669	6.688531	1.133068	-0.000134
 869	8.6366e+01	2.7095	30.952720	0.000568	5.675118	0.961391	-0.000114
 870	8.6466e+01	2.6882	30.867940	0.000426	4.256338	0.721043	-0.000085
 871	8.6565e+01	2.6684	30.718566	0.000750	7.499262	1.270409	-0.000150
 872	8.6665e+01	2.6498	30.658009	0.000304	3.040242	0.515031	-0.000061
 873	8.6764e+01	2.6281	30.528820	0.000649	6.485849	1.098733	-0.000130
 874	8.6864e+01	2.6077	30.395595	0.000669	6.688531	1.133068	-0.000134
 875	8.6963e+01	2.5896	30.266407	0.000649	6.485849	1.098733	-0.000130
 876	8.7063e+01	2.5697	30.177590	0.000446	4.459021	0.755379	-0.000089
 877	8.7162e+01	2.5498	30.048401	0.000649	6.485849	1.098733	-0.000130
 878	8.7261e+01	2.5294	29.943436	0.000527	5.269752	0.892720	-0.000105
 879	8.7361e+01	2.5094	29.842507	0.000507	5.067069	0.858385	-0.000101
 880	8.7460e+01	2.4899	29.725430	0.000588	5.877800	0.995726	-0.000118
 881	8.7560e+01	2.4697	29.616428	0.000547	5.472435	0.927056	-0.000110
 882	8.7659e+01	2.4503	29.507425	0.000547	5.472435	0.927056	-0.000110
 883	8.7759e+01	2.4310	29.390348	0.000588	5.877800	0.995726	-0.000118
 884	8.7859e+01	2.4104	29.269234	0.000608	6.080483	1.030062	-0.000122
 885	8.7958e+01	2.3892	29.148120	0.000608	6.080483	1.030062	-0.000122
 886	8.8058e+01	2.3710	29.043154	0.000527	5.269752	0.892720	-0.000105
 887	8.8157e+01	2.3502	28.938189	0.000527	5.269752	0.892720	-0.000105
 888	8.8257e+01	2.3304	28.804963	0.000669	6.688531	1.133068	-0.000134
 889	8.8356e+01	2.3109	28.663664	0.000709	7.093897	1.201739	-0.000142
 890	8.8456e+01	2.2913	28.546587	0.000588	5.877800	0.995726	-0.000118
 891	8.8555e+01	2.2710	28.453733	0.000466	4.661704	0.789714	-0.000093
 892	8.8654e+01	2.2513	28.352804	0.000507	5.067069	0.858385	-0.000101
 893	8.8754e+01	2.2306	28.211505	0.000709	7.093897	1.201739	-0.000142
 894	8.8853e+01	2.2116	28.082316	0.000649	6.485849	1.098733	-0.000130
 895	8.8953e+01	2.1922	28.001573	0.000405	4.053655	0.686708	-0.000081
 896	8.9052e+01	2.1712	27.860274	0.000709	7.093897	1.201739	-0.000142
 897	8.9152e+01	2.1520	27.759345	0.000507	5.067069	0.858385	-0.000101
 898	8.9251e+01	2.1311	27.605934	0.000770	7.701945	1.304745	-0.000154
 899	8.9351e+01	2.1111	27.517117	0.000446	4.459021	0.755379	-0.000089
 900	8.9451e+01	2.0911	27.391966	0.000628	6.283166	1.064397	-0.000126
 901	8.9550e+01	2.0723	27.262778	0.000649	6.485849	1.098733	-0.000130
 902	8.9650e+01	2.0519	27.137626	0.000628	6.283166	1.064397	-0.000126
 903	8.9749e+01	2.0319	27.060921	0.000385	3.850973	0.652372	-0.000077
 904	8.9849e+01	2.0111	26.887324	0.000872	8.715359	1.476422	-0.000174
 905	8.9948e+01	1.9921	26.806581	0.000405	4.053655	0.686708	-0.000081
 906	9.0047e+01	1.9711	26.669319	0.000689	6.891214	1.167403	-0.000138
 907	9.0147e+01	1.9526	26.544167	0.000628	6.283166	1.064397	-0.000126
 908	9.0246e+01	1.9322	26.435165	0.000547	5.472435	0.927056	-0.000110
 909	9.0346e+01	1.9118	26.310014	0.000628	6.283166	1.064397	-0.000126
 910	9.0445e+01	1.8911	26.213122	0.000486	4.864386	0.824049	-0.000097
 911	9.0545e+01	1.8727	26.104120	0.000547	5.472435	0.927056	-0.000110
 912	9.0644e+01	1.8530	25.978968	0.000628	6.283166	1.064397	-0.000126
 913	9.0744e+01	1.8325	25.878040	0.000507	5.067069	0.858385	-0.000101
 914	9.0844e+01	1.8127	25.740777	0.000689	6.891214	1.167403	-0.000138
 915	9.0943e+01	1.7934	25.631775	0.000547	5.472435	0.927056	-0.000110
 916	9.1043e+01	1.7719	25.502586	0.000649	6.485849	1.098733	-0.000130
 917	9.1142e+01	1.7525	25.385510	0.000588	5.877800	0.995726	-0.000118
 918	9.1242e+01	1.7323	25.260358	0.000628	6.283166	1.064397	-0.000126
 919	9.1341e+01	1.7126	25.175578	0.000426	4.256338	0.721043	-0.000085
 920	9.1441e+01	1.6938	25.018130	0.000790	7.904628	1.339080	-0.000158
 921	9.1540e+01	1.6726	24.921239	0.000486	4.864386	0.824049	-0.000097
 922	9.1639e+01	1.6534	24.812236	0.000547	5.472435	0.927056	-0.000110
 923	9.1739e+01	1.6336	24.670936	0.000709	7.093897	1.201739	-0.000142
 924	9.1838e+01	1.6127	24.533674	0.000689	6.891214	1.167403	-0.000138
 925	9.1938e+01	1.5932	24.448894	0.000426	4.256338	0.721043	-0.000085
 926	9.2037e+01	1.5736	24.299520	0.000750	7.499262	1.270409	-0.000150
 927	9.2137e+01	1.5550	24.206666	0.000466	4.661704	0.789714	-0.000093
 928	9.2237e+01	1.5334	24.081515	0.000628	6.283166	1.064397	-0.000126
 929	9.2336e+01	1.5147	23.948289	0.000669	6.688531	1.133068	-0.000134
 930	9.2436e+01	1.4932	23.851398	0.000486	4.864386	0.824049	-0.000097
 931	9.2535e+01	1.4727	23.697987	0.000770	7.701945	1.304745	-0.000154
 932	9.2635e+01	1.4538	23.588984	0.000547	5.472435	0.927056	-0.000110
 933	9.2734e+01	1.4339	23.443647	0.000730	7.296580	1.236074	-0.000146
 934	9.2834e+01	1.4134	23.318496	0.000628	6.283166	1.064397	-0.000126
 935	9.2933e+01	1.3944	23.233716	0.000426	4.256338	0.721043	-0.000085
 936	9.3032e+01	1.3742	23.112602	0.000608	6.080483	1.030062	-0.000122
 937	9.3132e+01	1.3542	22.971302	0.000709	7.093897	1.201739	-0.000142
 938	9.3231e+01	1.3338	22.830003	0.000709	7.093897	1.201739	-0.000142
 939	9.3331e+01	1.3115	22.745223	0.000426	4.256338	0.721043	-0.000085
 940	9.3430e+01	1.2941	22.591812	0.000770	7.701945	1.304745	-0.000154
 941	9.3530e+01	1.2737	22.507032	0.000426	4.256338	0.721043	-0.000085
 942	9.3629e+01	1.2550	22.381881	0.000628	6.283166	1.064397	-0.000126
 943	9.3729e+01	1.2350	22.232507	0.000750	7.499262	1.270409	-0.000150
 944	9.3829e+01	1.2156	22.123504	0.000547	5.472435	0.927056	-0.000110
 945	9.3928e+01	1.1958	22.018538	0.000527	5.269752	0.892720	-0.000105
 946	9.4028e+01	1.1754	21.881276	0.000689	6.891214	1.167403	-0.000138
 947	9.4127e+01	1.1556	21.768236	0.000568	5.675118	0.961391	-0.000114
 948	9.4227e+01	1.1346	21.598676	0.000851	8.512676	1.442086	-0.000170
 949	9.4326e+01	1.1150	21.493711	0.000527	5.269752	0.892720	-0.000105
 950	9.4425e+01	1.0958	21.376634	0.000588	5.877800	0.995726	-0.000118
 951	9.4525e+01	1.0770	21.275705	0.000507	5.067069	0.858385	-0.000101
 952	9.4624e+01	1.0565	21.142480	0.000669	6.688531	1.133068	-0.000134
 953	9.4724e+01	1.0352	21.045589	0.000486	4.864386	0.824049	-0.000097
 954	9.4823e+01	1.0166	20.900252	0.000730	7.296580	1.236074	-0.000146
 955	9.4923e+01	0.9956	20.811435	0.000446	4.459021	0.755379	-0.000089
 956	9.5022e+01	0.9762	20.641875	0.000851	8.512676	1.442086	-0.000170
 957	9.5122e+01	0.9568	20.573244	0.000345	3.445607	0.583702	-0.000069
 958	9.5222e+01	0.9367	20.359276	0.001074	10.742187	1.819776	-0.000215
 959	9.5321e+01	0.9164	20.306793	0.000263	2.634876	0.446360	-0.000053
 960	9.5421e+01	0.8961	20.169530	0.000689	6.891214	1.167403	-0.000138
 961	9.5520e+01	0.8765	20.060527	0.000547	5.472435	0.927056	-0.000110
 962	9.5620e+01	0.8562	19.931339	0.000649	6.485849	1.098733	-0.000130
 963	9.5719e+01	0.8365	19.794077	0.000689	6.891214	1.167403	-0.000138
 964	9.5819e+01	0.8163	19.652777	0.000709	7.093897	1.201739	-0.000142
 965	9.5918e+01	0.7966	19.547811	0.000527	5.269752	0.892720	-0.000105
 966	9.6017e+01	0.7763	19.402474	0.000730	7.296580	1.236074	-0.000146
 967	9.6117e+01	0.7569	19.293472	0.000547	5.472435	0.927056	-0.000110
 968	9.6216e+01	0.7371	19.156209	0.000689	6.891214	1.167403	-0.000138
 969	9.6316e+01	0.7171	19.010872	0.000730	7.296580	1.236074	-0.000146
 970	9.6415e+01	0.6975	18.913981	0.000486	4.864386	0.824049	-0.000097
 971	9.6515e+01	0.6774	18.829201	0.000426	4.256338	0.721043	-0.000085
 972	9.6615e+01	0.6569	18.635419	0.000973	9.728773	1.648099	-0.000195
 973	9.6714e+01	0.6377	18.538527	0.000486	4.864386	0.824049	-0.000097
 974	9.6814e+01	0.6180	18.441636	0.000486	4.864386	0.824049	-0.000097
 975	9.6913e+01	0.5975	18.300336	0.000709	7.093897	1.201739	-0.000142
 976	9.7013e+01	0.5776	18.179222	0.000608	6.080483	1.030062	-0.000122
 977	9.7112e+01	0.5576	18.066182	0.000568	5.675118	0.961391	-0.000114
 978	9.7212e+01	0.5374	17.945068	0.000608	6.080483	1.030062	-0.000122
 979	9.7311e+01	0.5177	17.787620	0.000790	7.904628	1.339080	-0.000158
 980	9.7410e+01	0.4979	17.674580	0.000568	5.675118	0.961391	-0.000114
 981	9.7510e+01	0.4782	17.561540	0.000568	5.675118	0.961391	-0.000114
 982	9.7609e+01	0.4582	17.428315	0.000669	6.688531	1.133068	-0.000134
 983	9.7709e+01	0.4382	17.282978	0.000730	7.296580	1.236074	-0.000146
 984	9.7808e+01	0.4177	17.149753	0.000669	6.688531	1.133068	-0.000134
 985	9.7908e+01	0.3986	17.060936	0.000446	4.459021	0.755379	-0.000089
 986	9.8007e+01	0.3780	16.915599	0.000730	7.296580	1.236074	-0.000146
 987	9.8107e+01	0.3586	16.766225	0.000750	7.499262	1.270409	-0.000150
 988	9.8207e+01	0.3378	16.685482	0.000405	4.053655	0.686708	-0.000081
 989	9.8306e+01	0.3185	16.544182	0.000709	7.093897	1.201739	-0.000142
 990	9.8406e+01	0.2985	16.414994	0.000649	6.485849	1.098733	-0.000130
 991	9.8505e+01	0.2771	16.273694	0.000709	7.093897	1.201739	-0.000142
 992	9.8605e+01	0.2596	16.172766	0.000507	5.067069	0.858385	-0.000101
 993	9.8704e+01	0.2387	16.035503	0.000689	6.891214	1.167403	-0.000138
 994	9.8803e+01	0.2190	15.898241	0.000689	6.891214	1.167403	-0.000138
 995	9.8903e+01	0.1987	15.773089	0.000628	6.283166	1.064397	-0.000126
 996	9.9002e+01	0.1791	15.664087	0.000547	5.472435	0.927056	-0.000110
 997	9.9102e+01	0.1591	15.530861	0.000669	6.688531	1.133068	-0.000134
 998	9.9201e+01	0.1392	15.409747	0.000608	6.080483	1.030062	-0.000122
 999	9.9301e+01	0.1181	15.272484	0.000689	6.891214	1.167403	-0.000138
1000	9.9400e+01	0.0990	15.159445	0.000568	5.675118	0.961391	-0.000114
1001	9.9500e+01	0.0790	14.989885	0.000851	8.512676	1.442086	-0.000170
1002	9.9600e+01	0.0592	14.876845	0.000568	5.675118	0.961391	-0.000114
1003	9.9699e+01	0.0392	14.767843	0.000547	5.472435	0.927056	-0.000110
1004	9.9799e+01	0.0237	14.642691	0.000628	6.283166	1.064397	-0.000126
1005	9.9898e+01	-0.0004	14.489280	0.000770	7.701945	1.304745	-0.000154
1006	9.9998e+01	-0.0182	14.384315	0.000527	5.269752	0.892720	-0.000105
1007	1.0010e+02	-0.0377	14.279349	0.000527	5.269752	0.892720	-0.000105
1008	1.0020e+02	-0.0584	14.134012	0.000730	7.296580	1.236074	-0.000146
1009	1.0030e+02	-0.0792	14.004824	0.000649	6.485849	1.098733	-0.000130
1010	1.0040e+02	-0.0989	13.859487	0.000730	7.296580	1.236074	-0.000146
1011	1.0050e+02	-0.1186	13.762596	0.000486	4.864386	0.824049	-0.000097
1012	1.0059e+02	-0.1378	13.629370	0.000669	6.688531	1.133068	-0.000134
1013	1.0069e+02	-0.1591	13.467885	0.000811	8.107311	1.373416	-0.000162
1014	1.0079e+02	-0.1788	13.375031	0.000466	4.661704	0.789714	-0.000093
1015	1.0089e+02	-0.1987	13.213545	0.000811	8.107311	1.373416	-0.000162
1016	1.0099e+02	-0.2184	13.152988	0.000304	3.040242	0.515031	-0.000061
1017	1.0109e+02	-0.2382	12.983429	0.000851	8.512676	1.442086	-0.000170
1018	1.0119e+02	-0.2583	12.874426	0.000547	5.472435	0.927056	-0.000110
1019	1.0129e+02	-0.2774	12.765423	0.000547	5.472435	0.927056	-0.000110
1020	1.0139e+02	-0.2972	12.640272	0.000628	6.283166	1.064397	-0.000126
1021	1.0149e+02	-0.3171	12.470712	0.000851	8.512676	1.442086	-0.000170
1022	1.0159e+02	-0.3378	12.341524	0.000649	6.485849	1.098733	-0.000130
1023	1.0169e+02	-0.3570	12.224447	0.000588	5.877800	0.995726	-0.000118
1024	1.0179e+02	-0.3775	12.115444	0.000547	5.472435	0.927056	-0.000110
1025	1.0189e+02	-0.3966	11.970107	0.000730	7.296580	1.236074	-0.000146
1026	1.0199e+02	-0.4173	11.873216	0.000486	4.864386	0.824049	-0.000097
1027	1.0209e+02	-0.4371	11.731916	0.000709	7.093897	1.201739	-0.000142
1028	1.0219e+02	-0.4568	11.635025	0.000486	4.864386	0.824049	-0.000097
1029	1.0229e+02	-0.4769	11.489688	0.000730	7.296580	1.236074	-0.000146
1030	1.0239e+02	-0.4961	11.320129	0.000851	8.512676	1.442086	-0.000170
1031	1.0248e+02	-0.5171	11.219200	0.000507	5.067069	0.858385	-0.000101
1032	1.0258e+02	-0.5364	11.106160	0.000568	5.675118	0.961391	-0.000114
1033	1.0268e+02	-0.5563	10.944675	0.000811	8.107311	1.373416	-0.000162
1034	1.0278e+02	-0.5773	10.831635	0.000568	5.675118	0.961391	-0.000114
1035	1.0288e+02	-0.5959	10.726670	0.000527	5.269752	0.892720	-0.000105
1036	1.0298e+02	-0.6163	10.549036	0.000892	8.918042	1.510757	-0.000179
1037	1.0308e+02	-0.6360	10.444070	0.000527	5.269752	0.892720	-0.000105
1038	1.0318e+02	-0.6556	10.322956	0.000608	6.080483	1.030062	-0.000122
1039	1.0328e+02	-0.6768	10.226065	0.000486	4.864386	0.824049	-0.000097
1040	1.0338e+02	-0.6955	10.068617	0.000790	7.904628	1.339080	-0.000158
1041	1.0348e+02	-0.7163	9.931354	0.000689	6.891214	1.167403	-0.000138
1042	1.0358e+02	-0.7359	9.806203	0.000628	6.283166	1.064397	-0.000126
1043	1.0368e+02	-0.7561	9.668940	0.000689	6.891214	1.167403	-0.000138
1044	1.0378e+02	-0.7755	9.515529	0.000770	7.701945	1.304745	-0.000154
1045	1.0388e+02	-0.7960	9.390378	0.000628	6.283166	1.064397	-0.000126
1046	1.0398e+02	-0.8157	9.301561	0.000446	4.459021	0.755379	-0.000089
1047	1.0408e+02	-0.8355	9.156224	0.000730	7.296580	1.236074	-0.000146
1048	1.0418e+02	-0.8553	9.022998	0.000669	6.688531	1.133068	-0.000134
1049	1.0428e+02	-0.8751	8.897847	0.000628	6.283166	1.064397	-0.000126
1050	1.0438e+02	-0.8949	8.740399	0.000790	7.904628	1.339080	-0.000158
1051	1.0447e+02	-0.9155	8.675805	0.000324	3.242924	0.549366	-0.000065
1052	1.0457e+02	-0.9352	8.510282	0.000831	8.309994	1.407751	-0.000166
1053	1.0467e+02	-0.9550	8.348797	0.000811	8.107311	1.373416	-0.000162
1054	1.0477e+02	-0.9757	8.259980	0.000446	4.459021	0.755379	-0.000089
1055	1.0487e+02	-0.9951	8.106569	0.000770	7.701945	1.304745	-0.000154
1056	1.0497e+02	-1.0153	8.001603	0.000527	5.269752	0.892720	-0.000105
1057	1.0507e+02	-1.0354	7.856266	0.000730	7.296580	1.236074	-0.000146
1058	1.0517e+02	-1.0551	7.755338	0.000507	5.067069	0.858385	-0.000101
1059	1.0527e+02	-1.0750	7.601927	0.000770	7.701945	1.304745	-0.000154
1060	1.0537e+02	-1.0944	7.460627	0.000709	7.093897	1.201739	-0.000142
1061	1.0547e+02	-1.1151	7.355661	0.000527	5.269752	0.892720	-0.000105
1062	1.0557e+02	-1.1353	7.214362	0.000709	7.093897	1.201739	-0.000142
1063	1.0567e+02	-1.1549	7.093247	0.000608	6.080483	1.030062	-0.000122
1064	1.0577e+02	-1.1751	6.955985	0.000689	6.891214	1.167403	-0.000138
1065	1.0587e+02	-1.1951	6.826797	0.000649	6.485849	1.098733	-0.000130
1066	1.0597e+02	-1.2151	6.742017	0.000426	4.256338	0.721043	-0.000085
1067	1.0607e+02	-1.2340	6.576494	0.000831	8.309994	1.407751	-0.000166
1068	1.0617e+02	-1.2549	6.451343	0.000628	6.283166	1.064397	-0.000126
1069	1.0627e+02	-1.2737	6.322155	0.000649	6.485849	1.098733	-0.000130
1070	1.0637e+02	-1.2935	6.176818	0.000730	7.296580	1.236074	-0.000146
1071	1.0647e+02	-1.3135	6.043592	0.000669	6.688531	1.133068	-0.000134
1072	1.0656e+02	-1.3333	5.906330	0.000689	6.891214	1.167403	-0.000138
1073	1.0666e+02	-1.3538	5.785216	0.000608	6.080483	1.030062	-0.000122
1074	1.0676e+02	-1.3739	5.647953	0.000689	6.891214	1.167403	-0.000138
1075	1.0686e+02	-1.3924	5.498579	0.000750	7.499262	1.270409	-0.000150
1076	1.0696e+02	-1.4133	5.377465	0.000608	6.080483	1.030062	-0.000122
1077	1.0706e+02	-1.4329	5.248276	0.000649	6.485849	1.098733	-0.000130
1078	1.0716e+02	-1.4523	5.151385	0.000486	4.864386	0.824049	-0.000097
1079	1.0726e+02	-1.4725	5.010085	0.000709	7.093897	1.201739	-0.000142
1080	1.0736e+02	-1.4935	4.929343	0.000405	4.053655	0.686708	-0.000081
1081	1.0746e+02	-1.5134	4.759783	0.000851	8.512676	1.442086	-0.000170
1082	1.0756e+02	-1.5343	4.654818	0.000527	5.269752	0.892720	-0.000105
1083	1.0766e+02	-1.5520	4.485258	0.000851	8.512676	1.442086	-0.000170
1084	1.0776e+02	-1.5725	4.343958	0.000709	7.093897	1.201739	-0.000142
1085	1.0786e+02	-1.5933	4.226881	0.000588	5.877800	0.995726	-0.000118
1086	1.0796e+02	-1.6119	4.125953	0.000507	5.067069	0.858385	-0.000101
1087	1.0806e+02	-1.6322	3.964467	0.000811	8.107311	1.373416	-0.000162
1088	1.0816e+02	-1.6522	3.875650	0.000446	4.459021	0.755379	-0.000089
1089	1.0826e+02	-1.6713	3.754536	0.000608	6.080483	1.030062	-0.000122
1090	1.0836e+02	-1.6918	3.576902	0.000892	8.918042	1.510757	-0.000179
1091	1.0845e+02	-1.7126	3.435603	0.000709	7.093897	1.201739	-0.000142
1092	1.0855e+02	-1.7317	3.310451	0.000628	6.283166	1.064397	-0.000126
1093	1.0865e+02	-1.7517	3.205486	0.000527	5.269752	0.892720	-0.000105
1094	1.0875e+02	-1.7715	3.076297	0.000649	6.485849	1.098733	-0.000130
1095	1.0885e+02	-1.7922	2.926923	0.000750	7.499262	1.270409	-0.000150
1096	1.0895e+02	-1.8118	2.809846	0.000588	5.877800	0.995726	-0.000118
1097	1.0905e+02	-1.8316	2.660472	0.000750	7.499262	1.270409	-0.000150
1098	1.0915e+02	-1.8510	2.515136	0.000730	7.296580	1.236074	-0.000146
1099	1.0925e+02	-1.8720	2.385947	0.000649	6.485849	1.098733	-0.000130
1100	1.0935e+02	-1.8912	2.252722	0.000669	6.688531	1.133068	-0.000134
1101	1.0945e+02	-1.9107	2.159868	0.000466	4.661704	0.789714	-0.000093
1102	1.0955e+02	-1.9307	2.010494	0.000750	7.499262	1.270409	-0.000150
1103	1.0965e+02	-1.9510	1.861120	0.000750	7.499262	1.270409	-0.000150
1104	1.0975e+02	-1.9717	1.768265	0.000466	4.661704	0.789714	-0.000093
1105	1.0985e+02	-1.9916	1.602743	0.000831	8.309994	1.407751	-0.000166
1106	1.0995e+02	-2.0118	1.497777	0.000527	5.269752	0.892720	-0.000105
1107	1.1005e+02	-2.0313	1.340329	0.000790	7.904628	1.339080	-0.000158
1108	1.1015e+02	-2.0504	1.243438	0.000486	4.864386	0.824049	-0.000097
1109	1.1025e+02	-2.0715	1.122324	0.000608	6.080483	1.030062	-0.000122
1110	1.1035e+02	-2.0898	0.993135	0.000649	6.485849	1.098733	-0.000130
1111	1.1044e+02	-2.1115	0.839724	0.000770	7.701945	1.304745	-0.000154
1112	1.1054e+02	-2.1307	0.710536	0.000649	6.485849	1.098733	-0.000130
1113	1.1064e+02	-2.1504	0.549050	0.000811	8.107311	1.373416	-0.000162
1114	1.1074e+02	-2.1706	0.440048	0.000547	5.472435	0.927056	-0.000110
1115	1.1084e+02	-2.1906	0.298748	0.000709	7.093897	1.201739	-0.000142
1116	1.1094e+02	-2.2103	0.185708	0.000568	5.675118	0.961391	-0.000114
1117	1.1104e+02	-2.2305	0.032297	0.000770	7.701945	1.304745	-0.000154
1118	1.1114e+02	-2.2516	-0.076706	0.000547	5.472435	0.927056	-0.000110
1119	1.1124e+02	-2.2710	-0.218005	0.000709	7.093897	1.201739	-0.000142
1120	1.1134e+02	-2.2896	-0.347194	0.000649	6.485849	1.098733	-0.000130
1121	1.1144e+02	-2.3094	-0.456196	0.000547	5.472435	0.927056	-0.000110
1122	1.1154e+02	-2.3303	-0.605570	0.000750	7.499262	1.270409	-0.000150
1123	1.1164e+02	-2.3502	-0.702462	0.000486	4.864386	0.824049	-0.000097
1124	1.1174e+02	-2.3697	-0.855873	0.000770	7.701945	1.304745	-0.000154
1125	1.1184e+02	-2.3894	-0.985061	0.000649	6.485849	1.098733	-0.000130
1126	1.1194e+02	-2.4106	-1.077915	0.000466	4.661704	0.789714	-0.000093
1127	1.1204e+02	-2.4297	-1.231326	0.000770	7.701945	1.304745	-0.000154
1128	1.1214e+02	-2.4499	-1.392812	0.000811	8.107311	1.373416	-0.000162
1129	1.1224e+02	-2.4693	-1.513926	0.000608	6.080483	1.030062	-0.000122
1130	1.1234e+02	-2.4896	-1.631003	0.000588	5.877800	0.995726	-0.000118
1131	1.1244e+02	-2.5085	-1.760191	0.000649	6.485849	1.098733	-0.000130
1132	1.1253e+02	-2.5288	-1.885342	0.000628	6.283166	1.064397	-0.000126
1133	1.1263e+02	-2.5494	-1.990308	0.000527	5.269752	0.892720	-0.000105
1134	1.1273e+02	-2.5687	-2.123533	0.000669	6.688531	1.133068	-0.000134
1135	1.1283e+02	-2.5879	-2.264833	0.000709	7.093897	1.201739	-0.000142
1136	1.1293e+02	-2.6073	-2.398059	0.000669	6.688531	1.133068	-0.000134
1137	1.1303e+02	-2.6281	-2.543396	0.000730	7.296580	1.236074	-0.000146
1138	1.1313e+02	-2.6478	-2.632213	0.000446	4.459021	0.755379	-0.000089
1139	1.1323e+02	-2.6682	-2.789661	0.000790	7.904628	1.339080	-0.000158
1140	1.1333e+02	-2.6879	-2.910775	0.000608	6.080483	1.030062	-0.000122
1141	1.1343e+02	-2.7091	-3.044000	0.000669	6.688531	1.133068	-0.000134
1142	1.1353e+02	-2.7282	-3.177226	0.000669	6.688531	1.133068	-0.000134
1143	1.1363e+02	-2.7483	-3.282191	0.000527	5.269752	0.892720	-0.000105
1144	1.1373e+02	-2.7679	-3.423491	0.000709	7.093897	1.201739	-0.000142
1145	1.1383e+02	-2.7875	-3.576902	0.000770	7.701945	1.304745	-0.000154
1146	1.1393e+02	-2.8075	-3.677831	0.000507	5.067069	0.858385	-0.000101
1147	1.1403e+02	-2.8281	-3.811056	0.000669	6.688531	1.133068	-0.000134
1148	1.1413e+02	-2.8477	-3.940244	0.000649	6.485849	1.098733	-0.000130
1149	1.1423e+02	-2.8677	-4.085581	0.000730	7.296580	1.236074	-0.000146
1150	1.1433e+02	-2.8873	-4.214770	0.000649	6.485849	1.098733	-0.000130
1151	1.1442e+02	-2.9070	-4.335884	0.000608	6.080483	1.030062	-0.000122
1152	1.1452e+02	-2.9277	-4.428738	0.000466	4.661704	0.789714	-0.000093
1153	1.1462e+02	-2.9478	-4.570038	0.000709	7.093897	1.201739	-0.000142
1154	1.1472e+02	-2.9674	-4.727486	0.000790	7.904628	1.339080	-0.000158
1155	1.1482e+02	-2.9877	-4.860711	0.000669	6.688531	1.133068	-0.000134
1156	1.1492e+02	-3.0079	-4.989900	0.000649	6.485849	1.098733	-0.000130
1157	1.1502e+02	-3.0271	-5.111014	0.000608	6.080483	1.030062	-0.000122
1158	1.1512e+02	-3.0476	-5.224054	0.000568	5.675118	0.961391	-0.000114
1159	1.1522e+02	-3.0668	-5.365353	0.000709	7.093897	1.201739	-0.000142
1160	1.1532e+02	-3.0865	-5.490505	0.000628	6.283166	1.064397	-0.000126
1161	1.1542e+02	-3.1066	-5.631804	0.000709	7.093897	1.201739	-0.000142
1162	1.1552e+02	-3.1259	-5.756956	0.000628	6.283166	1.064397	-0.000126
1163	1.1562e+02	-3.1470	-5.869995	0.000568	5.675118	0.961391	-0.000114
1164	1.1572e+02	-3.1667	-5.983035	0.000568	5.675118	0.961391	-0.000114
1165	1.1582e+02	-3.1860	-6.088001	0.000527	5.269752	0.892720	-0.000105
1166	1.1592e+02	-3.2056	-6.269672	0.000912	9.120725	1.545093	-0.000183
1167	1.1602e+02	-3.2257	-6.358489	0.000446	4.459021	0.755379	-0.000089
1168	1.1612e+02	-3.2469	-6.511900	0.000770	7.701945	1.304745	-0.000154
1169	1.1622e+02	-3.2654	-6.649163	0.000689	6.891214	1.167403	-0.000138
1170	1.1632e+02	-3.2861	-6.790462	0.000709	7.093897	1.201739	-0.000142
1171	1.1642e+02	-3.3057	-6.919651	0.000649	6.485849	1.098733	-0.000130
1172	1.1651e+02	-3.3267	-7.020579	0.000507	5.067069	0.858385	-0.000101
1173	1.1661e+02	-3.3463	-7.129582	0.000547	5.472435	0.927056	-0.000110
1174	1.1671e+02	-3.3651	-7.303179	0.000872	8.715359	1.476422	-0.000174
1175	1.1681e+02	-3.3850	-7.408144	0.000527	5.269752	0.892720	-0.000105
1176	1.1691e+02	-3.4062	-7.505035	0.000486	4.864386	0.824049	-0.000097
1177	1.1701e+02	-3.4267	-7.622112	0.000588	5.877800	0.995726	-0.000118
1178	1.1711e+02	-3.4460	-7.799746	0.000892	8.918042	1.510757	-0.000179
1179	1.1721e+02	-3.4653	-7.912786	0.000568	5.675118	0.961391	-0.000114
1180	1.1731e+02	-3.4862	-8.037937	0.000628	6.283166	1.064397	-0.000126
1181	1.1741e+02	-3.5049	-8.159051	0.000608	6.080483	1.030062	-0.000122
1182	1.1751e+02	-3.5255	-8.304388	0.000730	7.296580	1.236074	-0.000146
1183	1.1761e+02	-3.5452	-8.429539	0.000628	6.283166	1.064397	-0.000126
1184	1.1771e+02	-3.5654	-8.526431	0.000486	4.864386	0.824049	-0.000097
1185	1.1781e+02	-3.5851	-8.623322	0.000486	4.864386	0.824049	-0.000097
1186	1.1791e+02	-3.6044	-8.784807	0.000811	8.107311	1.373416	-0.000162
1187	1.1801e+02	-3.6259	-8.934181	0.000750	7.499262	1.270409	-0.000150
1188	1.1811e+02	-3.6449	-9.027036	0.000466	4.661704	0.789714	-0.000093
1189	1.1821e+02	-3.6651	-9.164298	0.000689	6.891214	1.167403	-0.000138
1190	1.1831e+02	-3.6847	-9.285412	0.000608	6.080483	1.030062	-0.000122
1191	1.1841e+02	-3.7049	-9.374229	0.000446	4.459021	0.755379	-0.000089
1192	1.1850e+02	-3.7245	-9.539752	0.000831	8.309994	1.407751	-0.000166
1193	1.1860e+02	-3.7448	-9.656829	0.000588	5.877800	0.995726	-0.000118
1194	1.1870e+02	-3.7651	-9.761794	0.000527	5.269752	0.892720	-0.000105
1195	1.1880e+02	-3.7833	-9.915205	0.000770	7.701945	1.304745	-0.000154
1196	1.1890e+02	-3.8034	-10.028245	0.000568	5.675118	0.961391	-0.000114
1197	1.1900e+02	-3.8242	-10.117062	0.000446	4.459021	0.755379	-0.000089
1198	1.1910e+02	-3.8435	-10.266436	0.000750	7.499262	1.270409	-0.000150
1199	1.1920e+02	-3.8631	-10.415810	0.000750	7.499262	1.270409	-0.000150
1200	1.1930e+02	-3.8835	-10.508664	0.000466	4.661704	0.789714	-0.000093
1201	1.1940e+02	-3.9040	-10.662075	0.000770	7.701945	1.304745	-0.000154
1202	1.1950e+02	-3.9226	-10.763004	0.000507	5.067069	0.858385	-0.000101
1203	1.1960e+02	-3.9435	-10.904304	0.000709	7.093897	1.201739	-0.000142
1204	1.1970e+02	-3.9642	-10.993121	0.000446	4.459021	0.755379	-0.000089
1205	1.1980e+02	-3.9836	-11.114235	0.000608	6.080483	1.030062	-0.000122
1206	1.1990e+02	-4.0035	-11.295906	0.000912	9.120725	1.545093	-0.000183
1207	1.2000e+02	-4.0230	-11.352426	0.000284	2.837559	0.480695	-0.000057
1208	1.2010e+02	-4.0439	-11.497763	0.000730	7.296580	1.236074	-0.000146
1209	1.2020e+02	-4.0631	-11.618877	0.000608	6.080483	1.030062	-0.000122
1210	1.2030e+02	-4.0832	-11.723842	0.000527	5.269752	0.892720	-0.000105
1211	1.2039e+02	-4.1023	-11.893402	0.000851	8.512676	1.442086	-0.000170
1212	1.2049e+02	-4.1229	-12.034702	0.000709	7.093897	1.201739	-0.000142
1213	1.2059e+02	-4.1429	-12.163890	0.000649	6.485849	1.098733	-0.000130
1214	1.2069e+02	-4.1625	-12.244633	0.000405	4.053655	0.686708	-0.000081
1215	1.2079e+02	-4.1818	-12.341524	0.000486	4.864386	0.824049	-0.000097
1216	1.2089e+02	-4.2029	-12.474749	0.000669	6.688531	1.133068	-0.000134
1217	1.2099e+02	-4.2224	-12.603938	0.000649	6.485849	1.098733	-0.000130
1218	1.2109e+02	-4.2418	-12.729089	0.000628	6.283166	1.064397	-0.000126
1219	1.2119e+02	-4.2622	-12.842129	0.000568	5.675118	0.961391	-0.000114
1220	1.2129e+02	-4.2828	-12.987466	0.000730	7.296580	1.236074	-0.000146
1221	1.2139e+02	-4.3023	-13.100505	0.000568	5.675118	0.961391	-0.000114
1222	1.2149e+02	-4.3213	-13.233731	0.000669	6.688531	1.133068	-0.000134
1223	1.2159e+02	-4.3419	-13.379068	0.000730	7.296580	1.236074	-0.000146
1224	1.2169e+02	-4.3626	-13.532479	0.000770	7.701945	1.304745	-0.000154
1225	1.2179e+02	-4.3811	-13.580925	0.000243	2.432193	0.412025	-0.000049
1226	1.2189e+02	-4.4023	-13.726262	0.000730	7.296580	1.236074	-0.000146
1227	1.2199e+02	-4.4217	-13.815078	0.000446	4.459021	0.755379	-0.000089
1228	1.2209e+02	-4.4417	-13.940230	0.000628	6.283166	1.064397	-0.000126
1229	1.2219e+02	-4.4609	-14.089604	0.000750	7.499262	1.270409	-0.000150
1230	1.2229e+02	-4.4820	-14.202644	0.000568	5.675118	0.961391	-0.000114
1231	1.2239e+02	-4.5029	-14.315683	0.000568	5.675118	0.961391	-0.000114
1232	1.2248e+02	-4.5207	-14.424686	0.000547	5.472435	0.927056	-0.000110
1233	1.2258e+02	-4.5415	-14.606357	0.000912	9.120725	1.545093	-0.000183
1234	1.2268e+02	-4.5604	-14.666914	0.000304	3.040242	0.515031	-0.000061
1235	1.2278e+02	-4.5807	-14.812251	0.000730	7.296580	1.236074	-0.000146
1236	1.2288e+02	-4.6011	-14.909142	0.000486	4.864386	0.824049	-0.000097
1237	1.2298e+02	-4.6204	-15.058516	0.000750	7.499262	1.270409	-0.000150
1238	1.2308e+02	-4.6414	-15.147333	0.000446	4.459021	0.755379	-0.000089
1239	1.2318e+02	-4.6605	-15.284596	0.000689	6.891214	1.167403	-0.000138
1240	1.2328e+02	-4.6814	-15.429933	0.000730	7.296580	1.236074	-0.000146
1241	1.2338e+02	-4.7006	-15.547010	0.000588	5.877800	0.995726	-0.000118
1242	1.2348e+02	-4.7211	-15.668124	0.000608	6.080483	1.030062	-0.000122
1243	1.2358e+02	-4.7409	-15.801349	0.000669	6.688531	1.133068	-0.000134
1244	1.2368e+02	-4.7607	-15.914389	0.000568	5.675118	0.961391	-0.000114
1245	1.2378e+02	-4.7801	-16.027429	0.000568	5.675118	0.961391	-0.000114
1246	1.2388e+02	-4.8009	-16.184877	0.000790	7.904628	1.339080	-0.000158
1247	1.2398e+02	-4.8201	-16.265620	0.000405	4.053655	0.686708	-0.000081
1248	1.2408e+02	-4.8404	-16.406920	0.000709	7.093897	1.201739	-0.000142
1249	1.2418e+02	-4.8599	-16.519959	0.000568	5.675118	0.961391	-0.000114
1250	1.2428e+02	-4.8807	-16.641074	0.000608	6.080483	1.030062	-0.000122
1251	1.2438e+02	-4.9002	-16.778336	0.000689	6.891214	1.167403	-0.000138
1252	1.2447e+02	-4.9205	-16.883302	0.000527	5.269752	0.892720	-0.000105
1253	1.2457e+02	-4.9397	-17.040750	0.000790	7.904628	1.339080	-0.000158
1254	1.2467e+02	-4.9591	-17.125530	0.000426	4.256338	0.721043	-0.000085
1255	1.2477e+02	-4.9789	-17.250681	0.000628	6.283166	1.064397	-0.000126
1256	1.2487e+02	-4.9994	-17.383906	0.000669	6.688531	1.133068	-0.000134
1257	1.2497e+02	-5.0201	-17.500983	0.000588	5.877800	0.995726	-0.000118
1258	1.2507e+02	-5.0394	-17.609986	0.000547	5.472435	0.927056	-0.000110
1259	1.2517e+02	-5.0601	-17.747249	0.000689	6.891214	1.167403	-0.000138
1260	1.2527e+02	-5.0792	-17.912771	0.000831	8.309994	1.407751	-0.000166
1261	1.2537e+02	-5.0986	-17.973328	0.000304	3.040242	0.515031	-0.000061
1262	1.2547e+02	-5.1181	-18.130777	0.000790	7.904628	1.339080	-0.000158
1263	1.2557e+02	-5.1385	-18.247854	0.000588	5.877800	0.995726	-0.000118
1264	1.2567e+02	-5.1584	-18.352819	0.000527	5.269752	0.892720	-0.000105
1265	1.2577e+02	-5.1782	-18.486045	0.000669	6.688531	1.133068	-0.000134
1266	1.2587e+02	-5.1982	-18.643493	0.000790	7.904628	1.339080	-0.000158
1267	1.2597e+02	-5.2187	-18.728273	0.000426	4.256338	0.721043	-0.000085
1268	1.2607e+02	-5.2385	-18.865535	0.000689	6.891214	1.167403	-0.000138
1269	1.2617e+02	-5.2589	-19.022984	0.000790	7.904628	1.339080	-0.000158
1270	1.2627e+02	-5.2776	-19.140061	0.000588	5.877800	0.995726	-0.000118
1271	1.2636e+02	-5.2974	-19.257137	0.000588	5.877800	0.995726	-0.000118
1272	1.2646e+02	-5.3169	-19.402474	0.000730	7.296580	1.236074	-0.000146
1273	1.2656e+02	-5.3386	-19.495328	0.000466	4.661704	0.789714	-0.000093
1274	1.2666e+02	-5.3580	-19.644703	0.000750	7.499262	1.270409	-0.000150
1275	1.2676e+02	-5.3777	-19.761779	0.000588	5.877800	0.995726	-0.000118
1276	1.2686e+02	-5.3983	-19.882894	0.000608	6.080483	1.030062	-0.000122
1277	1.2696e+02	-5.4192	-20.028230	0.000730	7.296580	1.236074	-0.000146
1278	1.2706e+02	-5.4376	-20.104936	0.000385	3.850973	0.652372	-0.000077
1279	1.2716e+02	-5.4576	-20.294681	0.000953	9.526090	1.613763	-0.000191
1280	1.2726e+02	-5.4779	-20.371387	0.000385	3.850973	0.652372	-0.000077
1281	1.2736e+02	-5.4971	-20.468278	0.000486	4.864386	0.824049	-0.000097
1282	1.2746e+02	-5.5173	-20.617652	0.000750	7.499262	1.270409	-0.000150
1283	1.2756e+02	-5.5377	-20.746841	0.000649	6.485849	1.098733	-0.000130
1284	1.2766e+02	-5.5573	-20.859880	0.000568	5.675118	0.961391	-0.000114
1285	1.2776e+02	-5.5776	-21.005217	0.000730	7.296580	1.236074	-0.000146
1286	1.2786e+02	-5.5977	-21.146517	0.000709	7.093897	1.201739	-0.000142
1287	1.2796e+02	-5.6168	-21.279742	0.000669	6.688531	1.133068	-0.000134
1288	1.2806e+02	-5.6374	-21.437191	0.000790	7.904628	1.339080	-0.000158
1289	1.2816e+02	-5.6570	-21.530045	0.000466	4.661704	0.789714	-0.000093
1290	1.2826e+02	-5.6757	-21.639048	0.000547	5.472435	0.927056	-0.000110
1291	1.2835e+02	-5.6968	-21.780347	0.000709	7.093897	1.201739	-0.000142
1292	1.2845e+02	-5.7169	-21.881276	0.000507	5.067069	0.858385	-0.000101
1293	1.2855e+02	-5.7361	-22.042761	0.000811	8.107311	1.373416	-0.000162
1294	1.2865e+02	-5.7559	-22.151764	0.000547	5.472435	0.927056	-0.000110
1295	1.2875e+02	-5.7770	-22.309212	0.000790	7.904628	1.339080	-0.000158
1296	1.2885e+02	-5.7968	-22.422252	0.000568	5.675118	0.961391	-0.000114
1297	1.2895e+02	-5.8163	-22.539329	0.000588	5.877800	0.995726	-0.000118
1298	1.2905e+02	-5.8351	-22.660443	0.000608	6.080483	1.030062	-0.000122
1299	1.2915e+02	-5.8569	-22.813854	0.000770	7.701945	1.304745	-0.000154
1300	1.2925e+02	-5.8755	-22.955154	0.000709	7.093897	1.201739	-0.000142
1301	1.2935e+02	-5.8968	-23.031859	0.000385	3.850973	0.652372	-0.000077
1302	1.2945e+02	-5.9169	-23.225642	0.000973	9.728773	1.648099	-0.000195
1303	1.2955e+02	-5.9371	-23.302347	0.000385	3.850973	0.652372	-0.000077
1304	1.2965e+02	-5.9561	-23.492093	0.000953	9.526090	1.613763	-0.000191
1305	1.2975e+02	-5.9756	-23.580910	0.000446	4.459021	0.755379	-0.000089
1306	1.2985e+02	-5.9961	-23.689913	0.000547	5.472435	0.927056	-0.000110
1307	1.2995e+02	-6.0153	-23.839287	0.000750	7.499262	1.270409	-0.000150
1308	1.3005e+02	-6.0345	-23.952326	0.000568	5.675118	0.961391	-0.000114
1309	1.3015e+02	-6.0550	-24.142072	0.000953	9.526090	1.613763	-0.000191
1310	1.3025e+02	-6.0756	-24.271260	0.000649	6.485849	1.098733	-0.000130
1311	1.3034e+02	-6.0954	-24.396411	0.000628	6.283166	1.064397	-0.000126
1312	1.3044e+02	-6.1148	-24.485228	0.000446	4.459021	0.755379	-0.000089
1313	1.3054e+02	-6.1345	-24.646714	0.000811	8.107311	1.373416	-0.000162
1314	1.3064e+02	-6.1554	-24.788013	0.000709	7.093897	1.201739	-0.000142
1315	1.3074e+02	-6.1752	-24.892979	0.000527	5.269752	0.892720	-0.000105
1316	1.3084e+02	-6.1953	-25.062539	0.000851	8.512676	1.442086	-0.000170
1317	1.3094e+02	-6.2143	-25.175578	0.000568	5.675118	0.961391	-0.000114
1318	1.3104e+02	-6.2357	-25.316878	0.000709	7.093897	1.201739	-0.000142
1319	1.3114e+02	-6.2543	-25.442029	0.000628	6.283166	1.064397	-0.000126
1320	1.3124e+02	-6.2746	-25.567181	0.000628	6.283166	1.064397	-0.000126
1321	1.3134e+02	-6.2950	-25.704443	0.000689	6.891214	1.167403	-0.000138
1322	1.3144e+02	-6.3141	-25.829594	0.000628	6.283166	1.064397	-0.000126
1323	1.3154e+02	-6.3345	-25.991080	0.000811	8.107311	1.373416	-0.000162
1324	1.3164e+02	-6.3551	-26.100083	0.000547	5.472435	0.927056	-0.000110
1325	1.3174e+02	-6.3739	-26.221197	0.000608	6.080483	1.030062	-0.000122
1326	1.3184e+02	-6.3950	-26.386719	0.000831	8.309994	1.407751	-0.000166
1327	1.3194e+02	-6.4146	-26.536093	0.000750	7.499262	1.270409	-0.000150
1328	1.3204e+02	-6.4340	-26.681430	0.000730	7.296580	1.236074	-0.000146
1329	1.3214e+02	-6.4539	-26.842916	0.000811	8.107311	1.373416	-0.000162
1330	1.3224e+02	-6.4742	-26.931733	0.000446	4.459021	0.755379	-0.000089
1331	1.3234e+02	-6.4941	-27.068995	0.000689	6.891214	1.167403	-0.000138
1332	1.3243e+02	-6.5140	-27.230481	0.000811	8.107311	1.373416	-0.000162
1333	1.3253e+02	-6.5333	-27.351595	0.000608	6.080483	1.030062	-0.000122
1334	1.3263e+02	-6.5536	-27.472709	0.000608	6.080483	1.030062	-0.000122
1335	1.3273e+02	-6.5734	-27.618046	0.000730	7.296580	1.236074	-0.000146
1336	1.3283e+02	-6.5936	-27.759345	0.000709	7.093897	1.201739	-0.000142
1337	1.3293e+02	-6.6128	-27.904682	0.000730	7.296580	1.236074	-0.000146
1338	1.3303e+02	-6.6327	-28.037908	0.000669	6.688531	1.133068	-0.000134
1339	1.3313e+02	-6.6531	-28.207467	0.000851	8.512676	1.442086	-0.000170
1340	1.3323e+02	-6.6730	-28.324544	0.000588	5.877800	0.995726	-0.000118
1341	1.3333e+02	-6.6931	-28.449696	0.000628	6.283166	1.064397	-0.000126
1342	1.3343e+02	-6.7134	-28.599070	0.000750	7.499262	1.270409	-0.000150
1343	1.3353e+02	-6.7334	-28.756518	0.000790	7.904628	1.339080	-0.000158
1344	1.3363e+02	-6.7526	-28.901855	0.000730	7.296580	1.236074	-0.000146
1345	1.3373e+02	-6.7720	-29.063340	0.000811	8.107311	1.373416	-0.000162
1346	1.3383e+02	-6.7932	-29.168306	0.000527	5.269752	0.892720	-0.000105
1347	1.3393e+02	-6.8127	-29.317680	0.000750	7.499262	1.270409	-0.000150
1348	1.3403e+02	-6.8329	-29.471091	0.000770	7.701945	1.304745	-0.000154
1349	1.3413e+02	-6.8518	-29.628539	0.000790	7.904628	1.339080	-0.000158
1350	1.3423e+02	-6.8729	-29.737542	0.000547	5.472435	0.927056	-0.000110
1351	1.3432e+02	-6.8924	-29.927287	0.000953	9.526090	1.613763	-0.000191
1352	1.3442e+02	-6.9121	-30.036290	0.000547	5.472435	0.927056	-0.000110
1353	1.3452e+02	-6.9318	-30.153367	0.000588	5.877800	0.995726	-0.000118
1354	1.3462e+02	-6.9519	-30.274481	0.000608	6.080483	1.030062	-0.000122
1355	1.3472e+02	-6.9722	-30.476338	0.001013	10.134139	1.716770	-0.000203
1356	1.3482e+02	-6.9923	-30.589377	0.000568	5.675118	0.961391	-0.000114
1357	1.3492e+02	-7.0126	-30.787197	0.000993	9.931456	1.682434	-0.000199
1358	1.3502e+02	-7.0313	-30.952720	0.000831	8.309994	1.407751	-0.000166
1359	1.3512e+02	-7.0517	-31.077871	0.000628	6.283166	1.064397	-0.000126
1360	1.3522e+02	-7.0709	-31.207059	0.000649	6.485849	1.098733	-0.000130
1361	1.3532e+02	-7.0910	-31.348359	0.000709	7.093897	1.201739	-0.000142
1362	1.3542e+02	-7.1116	-31.501770	0.000770	7.701945	1.304745	-0.000154
1363	1.3552e+02	-7.1304	-31.651144	0.000750	7.499262	1.270409	-0.000150
1364	1.3562e+02	-7.1518	-31.804555	0.000770	7.701945	1.304745	-0.000154
1365	1.3572e+02	-7.1706	-31.970078	0.000831	8.309994	1.407751	-0.000166
1366	1.3582e+02	-7.1906	-32.127526	0.000790	7.904628	1.339080	-0.000158
1367	1.3592e+02	-7.2114	-32.260752	0.000669	6.688531	1.133068	-0.000134
1368	1.3602e+02	-7.2310	-32.418200	0.000790	7.904628	1.339080	-0.000158
1369	1.3612e+02	-7.2514	-32.559500	0.000709	7.093897	1.201739	-0.000142
1370	1.3622e+02	-7.2708	-32.716948	0.000790	7.904628	1.339080	-0.000158
1371	1.3631e+02	-7.2917	-32.878433	0.000811	8.107311	1.373416	-0.000162
1372	1.3641e+02	-7.3102	-33.043956	0.000831	8.309994	1.407751	-0.000166
1373	1.3651e+02	-7.3315	-33.189293	0.000730	7.296580	1.236074	-0.000146
1374	1.3661e+02	-7.3517	-33.350778	0.000811	8.107311	1.373416	-0.000162
1375	1.3671e+02	-7.3705	-33.508227	0.000790	7.904628	1.339080	-0.000158
1376	1.3681e+02	-7.3914	-33.653564	0.000730	7.296580	1.236074	-0.000146
1377	1.3691e+02	-7.4107	-33.815049	0.000811	8.107311	1.373416	-0.000162
1378	1.3701e+02	-7.4306	-33.992683	0.000892	8.918042	1.510757	-0.000179
1379	1.3711e+02	-7.4493	-34.117834	0.000628	6.283166	1.064397	-0.000126
1380	1.3721e+02	-7.4696	-34.279320	0.000811	8.107311	1.373416	-0.000162
1381	1.3731e+02	-7.4899	-34.493288	0.001074	10.742187	1.819776	-0.000215
1382	1.3741e+02	-7.5096	-34.638625	0.000730	7.296580	1.236074	-0.000146
1383	1.3751e+02	-7.5293	-34.775887	0.000689	6.891214	1.167403	-0.000138
1384	1.3761e+02	-7.5505	-34.901038	0.000628	6.283166	1.064397	-0.000126
1385	1.3771e+02	-7.5699	-35.070598	0.000851	8.512676	1.442086	-0.000170
1386	1.3781e+02	-7.5894	-35.244195	0.000872	8.715359	1.476422	-0.000174
1387	1.3791e+02	-7.6080	-35.417792	0.000872	8.715359	1.476422	-0.000174
1388	1.3801e+02	-7.6283	-35.595426	0.000892	8.918042	1.510757	-0.000179
1389	1.3811e+02	-7.6492	-35.756911	0.000811	8.107311	1.373416	-0.000162
1390	1.3821e+02	-7.6686	-35.934545	0.000892	8.918042	1.510757	-0.000179
1391	1.3831e+02	-7.6874	-36.087956	0.000770	7.701945	1.304745	-0.000154
1392	1.3840e+02	-7.7099	-36.237330	0.000750	7.499262	1.270409	-0.000150
1393	1.3850e+02	-7.7290	-36.427076	0.000953	9.526090	1.613763	-0.000191
1394	1.3860e+02	-7.7477	-36.568376	0.000709	7.093897	1.201739	-0.000142
1395	1.3870e+02	-7.7680	-36.766195	0.000993	9.931456	1.682434	-0.000199
1396	1.3880e+02	-7.7885	-36.923643	0.000790	7.904628	1.339080	-0.000158
1397	1.3890e+02	-7.8073	-37.077055	0.000770	7.701945	1.304745	-0.000154
1398	1.3900e+02	-7.8276	-37.278911	0.001013	10.134139	1.716770	-0.000203
1399	1.3910e+02	-7.8476	-37.452508	0.000872	8.715359	1.476422	-0.000174
1400	1.3920e+02	-7.8679	-37.642254	0.000953	9.526090	1.613763	-0.000191
1401	1.3930e+02	-7.8886	-37.807776	0.000831	8.309994	1.407751	-0.000166
1402	1.3940e+02	-7.9077	-37.989447	0.000912	9.120725	1.545093	-0.000183
1403	1.3950e+02	-7.9269	-38.130747	0.000709	7.093897	1.201739	-0.000142
1404	1.3960e+02	-7.9472	-38.324530	0.000973	9.728773	1.648099	-0.000195
1405	1.3970e+02	-7.9675	-38.465829	0.000709	7.093897	1.201739	-0.000142
1406	1.3980e+02	-7.9875	-38.687872	0.001115	11.147552	1.888446	-0.000223
1407	1.3990e+02	-8.0080	-38.873580	0.000932	9.323407	1.579428	-0.000187
1408	1.4000e+02	-8.0266	-39.059288	0.000932	9.323407	1.579428	-0.000187
1409	1.4010e+02	-8.0472	-39.224811	0.000831	8.309994	1.407751	-0.000166
1410	1.4020e+02	-8.0673	-39.366111	0.000709	7.093897	1.201739	-0.000142
1411	1.4029e+02	-8.0865	-39.596227	0.001155	11.552918	1.957117	-0.000231
1412	1.4039e+02	-8.1067	-39.745601	0.000750	7.499262	1.270409	-0.000150
1413	1.4049e+02	-8.1273	-39.943421	0.000993	9.931456	1.682434	-0.000199
1414	1.4059e+02	-8.1462	-40.145278	0.001013	10.134139	1.716770	-0.000203
1415	1.4069e+02	-8.1676	-40.302726	0.000790	7.904628	1.339080	-0.000158
1416	1.4079e+02	-8.1879	-40.472286	0.000851	8.512676	1.442086	-0.000170
1417	1.4089e+02	-8.2077	-40.641845	0.000851	8.512676	1.442086	-0.000170
1418	1.4099e+02	-8.2259	-40.884074	0.001216	12.160966	2.060123	-0.000243
1419	1.4109e+02	-8.2461	-41.089968	0.001034	10.336821	1.751105	-0.000207
1420	1.4119e+02	-8.2668	-41.239342	0.000750	7.499262	1.270409	-0.000150
1421	1.4129e+02	-8.2867	-41.477533	0.001196	11.958283	2.025788	-0.000239
1422	1.4139e+02	-8.3061	-41.643055	0.000831	8.309994	1.407751	-0.000166
1423	1.4149e+02	-8.3261	-41.804541	0.000811	8.107311	1.373416	-0.000162
1424	1.4159e+02	-8.3463	-42.030620	0.001135	11.350235	1.922782	-0.000227
1425	1.4169e+02	-8.3660	-42.216328	0.000932	9.323407	1.579428	-0.000187
1426	1.4179e+02	-8.3862	-42.381851	0.000831	8.309994	1.407751	-0.000166
1427	1.4189e+02	-8.4054	-42.607931	0.001135	11.350235	1.922782	-0.000227
1428	1.4199e+02	-8.4251	-42.801713	0.000973	9.728773	1.648099	-0.000195
1429	1.4209e+02	-8.4460	-42.955124	0.000770	7.701945	1.304745	-0.000154
1430	1.4219e+02	-8.4658	-43.173130	0.001094	10.944870	1.854111	-0.000219
1431	1.4228e+02	-8.4856	-43.419395	0.001236	12.363649	2.094459	-0.000248
1432	1.4238e+02	-8.5049	-43.592992	0.000872	8.715359	1.476422	-0.000174
1433	1.4248e+02	-8.5257	-43.806960	0.001074	10.742187	1.819776	-0.000215
1434	1.4258e+02	-8.5455	-44.016891	0.001054	10.539504	1.785440	-0.000211
1435	1.4268e+02	-8.5629	-44.186451	0.000851	8.512676	1.442086	-0.000170
1436	1.4278e+02	-8.5846	-44.404456	0.001094	10.944870	1.854111	-0.000219
1437	1.4288e+02	-8.6047	-44.578053	0.000872	8.715359	1.476422	-0.000174
1438	1.4298e+02	-8.6242	-44.800095	0.001115	11.147552	1.888446	-0.000223
1439	1.4308e+02	-8.6450	-45.034249	0.001176	11.755601	1.991453	-0.000235
1440	1.4318e+02	-8.6649	-45.240143	0.001034	10.336821	1.751105	-0.000207
1441	1.4328e+02	-8.6845	-45.466223	0.001135	11.350235	1.922782	-0.000227
1442	1.4338e+02	-8.7047	-45.660005	0.000973	9.728773	1.648099	-0.000195
1443	1.4348e+02	-8.7243	-45.869936	0.001054	10.539504	1.785440	-0.000211
1444	1.4358e+02	-8.7444	-46.063719	0.000973	9.728773	1.648099	-0.000195
1445	1.4368e+02	-8.7646	-46.322095	0.001297	12.971697	2.197465	-0.000260
1446	1.4378e+02	-8.7846	-46.507804	0.000932	9.323407	1.579428	-0.000187
1447	1.4388e+02	-8.8036	-46.673326	0.000831	8.309994	1.407751	-0.000166
1448	1.4398e+02	-8.8245	-46.899406	0.001135	11.350235	1.922782	-0.000227
1449	1.4408e+02	-8.8440	-47.177968	0.001399	13.985111	2.369142	-0.000280
1450	1.4418e+02	-8.8632	-47.408085	0.001155	11.552918	1.957117	-0.000231
1451	1.4428e+02	-8.8837	-47.593793	0.000932	9.323407	1.579428	-0.000187
1452	1.4437e+02	-8.9044	-47.815836	0.001115	11.147552	1.888446	-0.000223
1453	1.4447e+02	-8.9230	-48.029804	0.001074	10.742187	1.819776	-0.000215
1454	1.4457e+02	-8.9438	-48.255883	0.001135	11.350235	1.922782	-0.000227
1455	1.4467e+02	-8.9630	-48.461777	0.001034	10.336821	1.751105	-0.000207
1456	1.4477e+02	-8.9830	-48.720154	0.001297	12.971697	2.197465	-0.000260
1457	1.4487e+02	-9.0036	-48.942197	0.001115	11.147552	1.888446	-0.000223
1458	1.4497e+02	-9.0233	-49.188462	0.001236	12.363649	2.094459	-0.000248
1459	1.4507e+02	-9.0431	-49.418579	0.001155	11.552918	1.957117	-0.000231
1460	1.4517e+02	-9.0635	-49.620435	0.001013	10.134139	1.716770	-0.000203
1461	1.4527e+02	-9.0833	-49.862664	0.001216	12.160966	2.060123	-0.000243
1462	1.4537e+02	-9.1014	-50.112966	0.001257	12.566332	2.128794	-0.000252
1463	1.4547e+02	-9.1228	-50.335008	0.001115	11.147552	1.888446	-0.000223
1464	1.4557e+02	-9.1424	-50.569162	0.001176	11.755601	1.991453	-0.000235
1465	1.4567e+02	-9.1626	-50.823502	0.001277	12.769015	2.163130	-0.000256
1466	1.4577e+02	-9.1830	-50.997099	0.000872	8.715359	1.476422	-0.000174
1467	1.4587e+02	-9.2027	-51.279698	0.001419	14.187794	2.403477	-0.000284
1468	1.4597e+02	-9.2226	-51.534038	0.001277	12.769015	2.163130	-0.000256
1469	1.4607e+02	-9.2427	-51.780303	0.001236	12.363649	2.094459	-0.000248
1470	1.4617e+02	-9.2633	-52.022531	0.001216	12.160966	2.060123	-0.000243
1471	1.4626e+02	-9.2834	-52.240536	0.001094	10.944870	1.854111	-0.000219
1472	1.4636e+02	-9.3024	-52.515062	0.001378	13.782428	2.334807	-0.000276
1473	1.4646e+02	-9.3208	-52.745178	0.001155	11.552918	1.957117	-0.000231
1474	1.4656e+02	-9.3427	-52.979332	0.001176	11.755601	1.991453	-0.000235
1475	1.4666e+02	-9.3616	-53.306340	0.001642	16.417304	2.781167	-0.000329
1476	1.4676e+02	-9.3826	-53.512234	0.001034	10.336821	1.751105	-0.000207
1477	1.4686e+02	-9.4021	-53.754462	0.001216	12.160966	2.060123	-0.000243
1478	1.4696e+02	-9.4226	-54.024950	0.001358	13.579746	2.300471	-0.000272
1479	1.4706e+02	-9.4423	-54.279290	0.001277	12.769015	2.163130	-0.000256
1480	1.4716e+02	-9.4615	-54.525555	0.001236	12.363649	2.094459	-0.000248
1481	1.4726e+02	-9.4806	-54.808155	0.001419	14.187794	2.403477	-0.000284
1482	1.4736e+02	-9.5015	-55.050383	0.001216	12.160966	2.060123	-0.000243
1483	1.4746e+02	-9.5213	-55.300685	0.001257	12.566332	2.128794	-0.000252
1484	1.4756e+02	-9.5421	-55.555025	0.001277	12.769015	2.163130	-0.000256
1485	1.4766e+02	-9.5605	-55.849736	0.001480	14.795842	2.506484	-0.000296
1486	1.4776e+02	-9.5811	-56.091964	0.001216	12.160966	2.060123	-0.000243
1487	1.4786e+02	-9.6013	-56.374563	0.001419	14.187794	2.403477	-0.000284
1488	1.4796e+02	-9.6219	-56.673311	0.001500	14.998525	2.540819	-0.000300
1489	1.4806e+02	-9.6405	-56.863057	0.000953	9.526090	1.613763	-0.000191
1490	1.4816e+02	-9.6611	-57.165842	0.001520	15.201208	2.575154	-0.000304
1491	1.4825e+02	-9.6796	-57.504961	0.001703	17.025353	2.884173	-0.000341
1492	1.4835e+02	-9.6996	-57.722967	0.001094	10.944870	1.854111	-0.000219
1493	1.4845e+02	-9.7213	-58.049975	0.001642	16.417304	2.781167	-0.000329
1494	1.4855e+02	-9.7401	-58.304314	0.001277	12.769015	2.163130	-0.000256
1495	1.4865e+02	-9.7602	-58.538468	0.001176	11.755601	1.991453	-0.000235
1496	1.4875e+02	-9.7800	-58.861439	0.001621	16.214622	2.746831	-0.000325
1497	1.4885e+02	-9.7995	-59.156150	0.001480	14.795842	2.506484	-0.000296
1498	1.4895e+02	-9.8196	-59.462972	0.001540	15.403891	2.609490	-0.000308
1499	1.4905e+02	-9.8395	-59.741535	0.001399	13.985111	2.369142	-0.000280
1500	1.4915e+02	-9.8605	-60.003948	0.001317	13.174380	2.231800	-0.000264
1501	1.4925e+02	-9.8801	-60.250214	0.001236	12.363649	2.094459	-0.000248
1502	1.4935e+02	-9.8997	-60.573185	0.001621	16.214622	2.746831	-0.000325
1503	1.4945e+02	-9.9194	-60.896155	0.001621	16.214622	2.746831	-0.000325
1504	1.4955e+02	-9.9396	-61.182792	0.001439	14.390477	2.437813	-0.000288
1505	1.4965e+02	-9.9591	-61.493652	0.001561	15.606573	2.643825	-0.000312
1506	1.4975e+02	-9.9799	-61.784325	0.001459	14.593159	2.472148	-0.000292
1507	1.4985e+02	-9.9994	-62.038665	0.001277	12.769015	2.163130	-0.000256
1508	1.4995e+02	-9.9783	-62.240522	-0.001013	-10.134139	-1.716770	-0.000203
1509	1.5005e+02	-9.9594	-62.333376	-0.000466	-4.661704	-0.789714	-0.000093
1510	1.5015e+02	-9.9390	-62.502935	-0.000851	-8.512676	-1.442086	-0.000170
1511	1.5025e+02	-9.9194	-62.624050	-0.000608	-6.080483	-1.030062	-0.000122
1512	1.5034e+02	-9.8999	-62.733052	-0.000547	-5.472435	-0.927056	-0.000110
1513	1.5044e+02	-9.8788	-62.813795	-0.000405	-4.053655	-0.686708	-0.000081
1514	1.5054e+02	-9.8598	-62.922798	-0.000547	-5.472435	-0.927056	-0.000110
1515	1.5064e+02	-9.8395	-63.015652	-0.000466	-4.661704	-0.789714	-0.000093
1516	1.5074e+02	-9.8206	-63.043912	-0.000142	-1.418779	-0.240348	-0.000028
1517	1.5084e+02	-9.8001	-63.160989	-0.000588	-5.877800	-0.995726	-0.000118
1518	1.5094e+02	-9.7803	-63.189249	-0.000142	-1.418779	-0.240348	-0.000028
1519	1.5104e+02	-9.7612	-63.274028	-0.000426	-4.256338	-0.721043	-0.000085
1520	1.5114e+02	-9.7400	-63.350734	-0.000385	-3.850973	-0.652372	-0.000077
1521	1.5124e+02	-9.7202	-63.395142	-0.000223	-2.229510	-0.377689	-0.000045
1522	1.5134e+02	-9.7003	-63.411291	-0.000081	-0.810731	-0.137342	-0.000016
1523	1.5144e+02	-9.6805	-63.496071	-0.000426	-4.256338	-0.721043	-0.000085
1524	1.5154e+02	-9.6616	-63.544517	-0.000243	-2.432193	-0.412025	-0.000049
1525	1.5164e+02	-9.6408	-63.560665	-0.000081	-0.810731	-0.137342	-0.000016
1526	1.5174e+02	-9.6204	-63.681779	-0.000608	-6.080483	-1.030062	-0.000122
1527	1.5184e+02	-9.6005	-63.649482	0.000162	1.621462	0.274683	0.000032
1528	1.5194e+02	-9.5813	-63.706002	-0.000284	-2.837559	-0.480695	-0.000057
1529	1.5204e+02	-9.5609	-63.706002	0.000000	0.000000	0.000000	0.000000
1530	1.5214e+02	-9.5409	-63.738299	-0.000162	-1.621462	-0.274683	-0.000032
1531	1.5224e+02	-9.5213	-63.762522	-0.000122	-1.216097	-0.206012	-0.000024
1532	1.5233e+02	-9.5014	-63.754448	0.000041	0.405366	0.068671	0.000008
1533	1.5243e+02	-9.4810	-63.782708	-0.000142	-1.418779	-0.240348	-0.000028
1534	1.5253e+02	-9.4612	-63.802893	-0.000101	-1.013414	-0.171677	-0.000020
1535	1.5263e+02	-9.4418	-63.831153	-0.000142	-1.418779	-0.240348	-0.000028
1536	1.5273e+02	-9.4221	-63.843265	-0.000061	-0.608048	-0.103006	-0.000012
1537	1.5283e+02	-9.4011	-63.847302	-0.000020	-0.202683	-0.034335	-0.000004
1538	1.5293e+02	-9.3829	-63.843265	0.000020	0.202683	0.034335	0.000004
1539	1.5303e+02	-9.3619	-63.871525	-0.000142	-1.418779	-0.240348	-0.000028
1540	1.5313e+02	-9.3419	-63.867487	0.000020	0.202683	0.034335	0.000004
1541	1.5323e+02	-9.3211	-63.806930	0.000304	3.040242	0.515031	0.000061
1542	1.5333e+02	-9.3028	-63.899784	-0.000466	-4.661704	-0.789714	-0.000093
1543	1.5343e+02	-9.2825	-63.806930	0.000466	4.661704	0.789714	0.000093
1544	1.5353e+02	-9.2622	-63.887673	-0.000405	-4.053655	-0.686708	-0.000081
1545	1.5363e+02	-9.2427	-63.879599	0.000041	0.405366	0.068671	0.000008
1546	1.5373e+02	-9.2221	-63.835190	0.000223	2.229510	0.377689	0.000045
1547	1.5383e+02	-9.2036	-63.851339	-0.000081	-0.810731	-0.137342	-0.000016
1548	1.5393e+02	-9.1824	-63.770596	0.000405	4.053655	0.686708	0.000081
1549	1.5403e+02	-9.1628	-63.782708	-0.000061	-0.608048	-0.103006	-0.000012
1550	1.5413e+02	-9.1437	-63.774633	0.000041	0.405366	0.068671	0.000008
1551	1.5422e+02	-9.1235	-63.790782	-0.000081	-0.810731	-0.137342	-0.000016
1552	1.5432e+02	-9.1033	-63.718113	0.000365	3.648290	0.618037	0.000073
1553	1.5442e+02	-9.0825	-63.730225	-0.000061	-0.608048	-0.103006	-0.000012
1554	1.5452e+02	-9.0625	-63.714076	0.000081	0.810731	0.137342	0.000016
1555	1.5462e+02	-9.0436	-63.669668	0.000223	2.229510	0.377689	0.000045
1556	1.5472e+02	-9.0230	-63.613148	0.000284	2.837559	0.480695	0.000057
1557	1.5482e+02	-9.0034	-63.625259	-0.000061	-0.608048	-0.103006	-0.000012
1558	1.5492e+02	-8.9832	-63.572776	0.000263	2.634876	0.446360	0.000053
1559	1.5502e+02	-8.9640	-63.564702	0.000041	0.405366	0.068671	0.000008
1560	1.5512e+02	-8.9436	-63.560665	0.000020	0.202683	0.034335	0.000004
1561	1.5522e+02	-8.9238	-63.508182	0.000263	2.634876	0.446360	0.000053
1562	1.5532e+02	-8.9026	-63.475885	0.000162	1.621462	0.274683	0.000032
1563	1.5542e+02	-8.8824	-63.455700	0.000101	1.013414	0.171677	0.000020
1564	1.5552e+02	-8.8635	-63.378994	0.000385	3.850973	0.652372	0.000077
1565	1.5562e+02	-8.8424	-63.362845	0.000081	0.810731	0.137342	0.000016
1566	1.5572e+02	-8.8251	-63.306326	0.000284	2.837559	0.480695	0.000057
1567	1.5582e+02	-8.8053	-63.322474	-0.000081	-0.810731	-0.137342	-0.000016
1568	1.5592e+02	-8.7848	-63.265954	0.000284	2.837559	0.480695	0.000057
1569	1.5602e+02	-8.7641	-63.233657	0.000162	1.621462	0.274683	0.000032
1570	1.5612e+02	-8.7448	-63.201360	0.000162	1.621462	0.274683	0.000032
1571	1.5622e+02	-8.7241	-63.120617	0.000405	4.053655	0.686708	0.000081
1572	1.5631e+02	-8.7050	-63.124654	-0.000020	-0.202683	-0.034335	-0.000004
1573	1.5641e+02	-8.6853	-63.080246	0.000223	2.229510	0.377689	0.000045
1574	1.5651e+02	-8.6646	-63.043912	0.000182	1.824145	0.309019	0.000037
1575	1.5661e+02	-8.6444	-62.987392	0.000284	2.837559	0.480695	0.000057
1576	1.5671e+02	-8.6253	-62.922798	0.000324	3.242924	0.549366	0.000065
1577	1.5681e+02	-8.6052	-62.882426	0.000203	2.026828	0.343354	0.000041
1578	1.5691e+02	-8.5849	-62.882426	0.000000	0.000000	0.000000	0.000000
1579	1.5701e+02	-8.5651	-62.817832	0.000324	3.242924	0.549366	0.000065
1580	1.5711e+02	-8.5446	-62.761312	0.000284	2.837559	0.480695	0.000057
1581	1.5721e+02	-8.5239	-62.733052	0.000142	1.418779	0.240348	0.000028
1582	1.5731e+02	-8.5053	-62.660384	0.000365	3.648290	0.618037	0.000073
1583	1.5741e+02	-8.4856	-62.595790	0.000324	3.242924	0.549366	0.000065
1584	1.5751e+02	-8.4659	-62.551381	0.000223	2.229510	0.377689	0.000045
1585	1.5761e+02	-8.4451	-62.535233	0.000081	0.810731	0.137342	0.000016
1586	1.5771e+02	-8.4261	-62.442378	0.000466	4.661704	0.789714	0.000093
1587	1.5781e+02	-8.4064	-62.361636	0.000405	4.053655	0.686708	0.000081
1588	1.5791e+02	-8.3865	-62.345487	0.000081	0.810731	0.137342	0.000016
1589	1.5801e+02	-8.3658	-62.305116	0.000203	2.026828	0.343354	0.000041
1590	1.5811e+02	-8.3456	-62.228410	0.000385	3.850973	0.652372	0.000077
1591	1.5821e+02	-8.3264	-62.200150	0.000142	1.418779	0.240348	0.000028
1592	1.5830e+02	-8.3063	-62.119408	0.000405	4.053655	0.686708	0.000081
1593	1.5840e+02	-8.2857	-62.074999	0.000223	2.229510	0.377689	0.000045
1594	1.5850e+02	-8.2661	-62.042702	0.000162	1.621462	0.274683	0.000032
1595	1.5860e+02	-8.2465	-61.982145	0.000304	3.040242	0.515031	0.000061
1596	1.5870e+02	-8.2257	-61.937736	0.000223	2.229510	0.377689	0.000045
1597	1.5880e+02	-8.2068	-61.869105	0.000345	3.445607	0.583702	0.000069
1598	1.5890e+02	-8.1868	-61.780288	0.000446	4.459021	0.755379	0.000089
1599	1.5900e+02	-8.1662	-61.739917	0.000203	2.026828	0.343354	0.000041
1600	1.5910e+02	-8.1467	-61.715694	0.000122	1.216097	0.206012	0.000024
1601	1.5920e+02	-8.1256	-61.663211	0.000263	2.634876	0.446360	0.000053
1602	1.5930e+02	-8.1079	-61.570357	0.000466	4.661704	0.789714	0.000093
1603	1.5940e+02	-8.0872	-61.517874	0.000263	2.634876	0.446360	0.000053
1604	1.5950e+02	-8.0659	-61.433095	0.000426	4.256338	0.721043	0.000085
1605	1.5960e+02	-8.0465	-61.425020	0.000041	0.405366	0.068671	0.000008
1606	1.5970e+02	-8.0283	-61.372537	0.000263	2.634876	0.446360	0.000053
1607	1.5980e+02	-8.0073	-61.295832	0.000385	3.850973	0.652372	0.000077
1608	1.5990e+02	-7.9872	-61.178755	0.000588	5.877800	0.995726	0.000118
1609	1.6000e+02	-7.9671	-61.138384	0.000203	2.026828	0.343354	0.000041
1610	1.6010e+02	-7.9494	-61.057641	0.000405	4.053655	0.686708	0.000081
1611	1.6019e+02	-7.9274	-60.993047	0.000324	3.242924	0.549366	0.000065
1612	1.6029e+02	-7.9082	-60.972861	0.000101	1.013414	0.171677	0.000020
1613	1.6039e+02	-7.8888	-60.859821	0.000568	5.675118	0.961391	0.000114
1614	1.6049e+02	-7.8677	-60.867896	-0.000041	-0.405366	-0.068671	-0.000008
1615	1.6059e+02	-7.8479	-60.754856	0.000568	5.675118	0.961391	0.000114
1616	1.6069e+02	-7.8268	-60.690262	0.000324	3.242924	0.549366	0.000065
1617	1.6079e+02	-7.8080	-60.621630	0.000345	3.445607	0.583702	0.000069
1618	1.6089e+02	-7.7881	-60.593370	0.000142	1.418779	0.240348	0.000028
1619	1.6099e+02	-7.7684	-60.476293	0.000588	5.877800	0.995726	0.000118
1620	1.6109e+02	-7.7478	-60.439959	0.000182	1.824145	0.309019	0.000037
1621	1.6119e+02	-7.7290	-60.355179	0.000426	4.256338	0.721043	0.000085
1622	1.6129e+02	-7.7086	-60.294622	0.000304	3.040242	0.515031	0.000061
1623	1.6139e+02	-7.6878	-60.242139	0.000263	2.634876	0.446360	0.000053
1624	1.6149e+02	-7.6691	-60.145248	0.000486	4.864386	0.824049	0.000097
1625	1.6159e+02	-7.6489	-60.056431	0.000446	4.459021	0.755379	0.000089
1626	1.6169e+02	-7.6294	-60.024134	0.000162	1.621462	0.274683	0.000032
1627	1.6179e+02	-7.6086	-59.947429	0.000385	3.850973	0.652372	0.000077
1628	1.6189e+02	-7.5896	-59.874760	0.000365	3.648290	0.618037	0.000073
1629	1.6199e+02	-7.5694	-59.802092	0.000365	3.648290	0.618037	0.000073
1630	1.6209e+02	-7.5497	-59.773832	0.000142	1.418779	0.240348	0.000028
1631	1.6219e+02	-7.5293	-59.656755	0.000588	5.877800	0.995726	0.000118
1632	1.6228e+02	-7.5104	-59.644643	0.000061	0.608048	0.103006	0.000012
1633	1.6238e+02	-7.4899	-59.527566	0.000588	5.877800	0.995726	0.000118
1634	1.6248e+02	-7.4696	-59.434712	0.000466	4.661704	0.789714	0.000093
1635	1.6258e+02	-7.4500	-59.378192	0.000284	2.837559	0.480695	0.000057
1636	1.6268e+02	-7.4294	-59.329747	0.000243	2.432193	0.412025	0.000049
1637	1.6278e+02	-7.4095	-59.249004	0.000405	4.053655	0.686708	0.000081
1638	1.6288e+02	-7.3901	-59.168261	0.000405	4.053655	0.686708	0.000081
1639	1.6298e+02	-7.3705	-59.111741	0.000284	2.837559	0.480695	0.000057
1640	1.6308e+02	-7.3505	-59.059259	0.000263	2.634876	0.446360	0.000053
1641	1.6318e+02	-7.3316	-58.966405	0.000466	4.661704	0.789714	0.000093
1642	1.6328e+02	-7.3105	-58.893736	0.000365	3.648290	0.618037	0.000073
1643	1.6338e+02	-7.2910	-58.804919	0.000446	4.459021	0.755379	0.000089
1644	1.6348e+02	-7.2696	-58.736288	0.000345	3.445607	0.583702	0.000069
1645	1.6358e+02	-7.2502	-58.663619	0.000365	3.648290	0.618037	0.000073
1646	1.6368e+02	-7.2318	-58.582877	0.000405	4.053655	0.686708	0.000081
1647	1.6378e+02	-7.2114	-58.490023	0.000466	4.661704	0.789714	0.000093
1648	1.6388e+02	-7.1916	-58.445614	0.000223	2.229510	0.377689	0.000045
1649	1.6398e+02	-7.1703	-58.324500	0.000608	6.080483	1.030062	0.000122
1650	1.6408e+02	-7.1507	-58.312389	0.000061	0.608048	0.103006	0.000012
1651	1.6418e+02	-7.1309	-58.203386	0.000547	5.472435	0.927056	0.000110
1652	1.6427e+02	-7.1118	-58.146866	0.000284	2.837559	0.480695	0.000057
1653	1.6437e+02	-7.0915	-58.045938	0.000507	5.067069	0.858385	0.000101
1654	1.6447e+02	-7.0715	-57.977306	0.000345	3.445607	0.583702	0.000069
1655	1.6457e+02	-7.0513	-57.880415	0.000486	4.864386	0.824049	0.000097
1656	1.6467e+02	-7.0312	-57.807747	0.000365	3.648290	0.618037	0.000073
1657	1.6477e+02	-7.0117	-57.751227	0.000284	2.837559	0.480695	0.000057
1658	1.6487e+02	-6.9917	-57.654335	0.000486	4.864386	0.824049	0.000097
1659	1.6497e+02	-6.9725	-57.609927	0.000223	2.229510	0.377689	0.000045
1660	1.6507e+02	-6.9522	-57.484776	0.000628	6.283166	1.064397	0.000126
1661	1.6517e+02	-6.9316	-57.420182	0.000324	3.242924	0.549366	0.000065
1662	1.6527e+02	-6.9118	-57.363662	0.000284	2.837559	0.480695	0.000057
1663	1.6537e+02	-6.8915	-57.282919	0.000405	4.053655	0.686708	0.000081
1664	1.6547e+02	-6.8722	-57.165842	0.000588	5.877800	0.995726	0.000118
1665	1.6557e+02	-6.8515	-57.121434	0.000223	2.229510	0.377689	0.000045
1666	1.6567e+02	-6.8330	-57.056839	0.000324	3.242924	0.549366	0.000065
1667	1.6577e+02	-6.8127	-56.935725	0.000608	6.080483	1.030062	0.000122
1668	1.6587e+02	-6.7929	-56.903428	0.000162	1.621462	0.274683	0.000032
1669	1.6597e+02	-6.7722	-56.806537	0.000486	4.864386	0.824049	0.000097
1670	1.6607e+02	-6.7520	-56.721757	0.000426	4.256338	0.721043	0.000085
1671	1.6616e+02	-6.7323	-56.612754	0.000547	5.472435	0.927056	0.000110
1672	1.6626e+02	-6.7134	-56.548160	0.000324	3.242924	0.549366	0.000065
1673	1.6636e+02	-6.6930	-56.479529	0.000345	3.445607	0.583702	0.000069
1674	1.6646e+02	-6.6726	-56.390712	0.000446	4.459021	0.755379	0.000089
1675	1.6656e+02	-6.6531	-56.334192	0.000284	2.837559	0.480695	0.000057
1676	1.6666e+02	-6.6344	-56.257487	0.000385	3.850973	0.652372	0.000077
1677	1.6676e+02	-6.6125	-56.148484	0.000547	5.472435	0.927056	0.000110
1678	1.6686e+02	-6.5936	-56.063704	0.000426	4.256338	0.721043	0.000085
1679	1.6696e+02	-6.5723	-56.019296	0.000223	2.229510	0.377689	0.000045
1680	1.6706e+02	-6.5530	-55.918367	0.000507	5.067069	0.858385	0.000101
1681	1.6716e+02	-6.5341	-55.813402	0.000527	5.269752	0.892720	0.000105
1682	1.6726e+02	-6.5145	-55.752845	0.000304	3.040242	0.515031	0.000061
1683	1.6736e+02	-6.4940	-55.639805	0.000568	5.675118	0.961391	0.000114
1684	1.6746e+02	-6.4743	-55.563099	0.000385	3.850973	0.652372	0.000077
1685	1.6756e+02	-6.4536	-55.454096	0.000547	5.472435	0.927056	0.000110
1686	1.6766e+02	-6.4346	-55.393539	0.000304	3.040242	0.515031	0.000061
1687	1.6776e+02	-6.4136	-55.316834	0.000385	3.850973	0.652372	0.000077
1688	1.6786e+02	-6.3940	-55.219943	0.000486	4.864386	0.824049	0.000097
1689	1.6796e+02	-6.3744	-55.151311	0.000345	3.445607	0.583702	0.000069
1690	1.6806e+02	-6.3547	-55.054420	0.000486	4.864386	0.824049	0.000097
1691	1.6816e+02	-6.3336	-54.925232	0.000649	6.485849	1.098733	0.000130
1692	1.6825e+02	-6.3141	-54.872749	0.000263	2.634876	0.446360	0.000053
1693	1.6835e+02	-6.2955	-54.783932	0.000446	4.459021	0.755379	0.000089
1694	1.6845e+02	-6.2756	-54.715301	0.000345	3.445607	0.583702	0.000069
1695	1.6855e+02	-6.2546	-54.618409	0.000486	4.864386	0.824049	0.000097
1696	1.6865e+02	-6.2344	-54.517481	0.000507	5.067069	0.858385	0.000101
1697	1.6875e+02	-6.2144	-54.481147	0.000182	1.824145	0.309019	0.000037
1698	1.6885e+02	-6.1949	-54.339847	0.000709	7.093897	1.201739	0.000142
1699	1.6895e+02	-6.1749	-54.267179	0.000365	3.648290	0.618037	0.000073
1700	1.6905e+02	-6.1554	-54.198547	0.000345	3.445607	0.583702	0.000069
1701	1.6915e+02	-6.1359	-54.069359	0.000649	6.485849	1.098733	0.000130
1702	1.6925e+02	-6.1157	-53.996690	0.000365	3.648290	0.618037	0.000073
1703	1.6935e+02	-6.0956	-53.919985	0.000385	3.850973	0.652372	0.000077
1704	1.6945e+02	-6.0751	-53.815019	0.000527	5.269752	0.892720	0.000105
1705	1.6955e+02	-6.0553	-53.770611	0.000223	2.229510	0.377689	0.000045
1706	1.6965e+02	-6.0352	-53.625274	0.000730	7.296580	1.236074	0.000146
1707	1.6975e+02	-6.0162	-53.556643	0.000345	3.445607	0.583702	0.000069
1708	1.6985e+02	-5.9966	-53.439566	0.000588	5.877800	0.995726	0.000118
1709	1.6995e+02	-5.9749	-53.395157	0.000223	2.229510	0.377689	0.000045
1710	1.7005e+02	-5.9561	-53.310377	0.000426	4.256338	0.721043	0.000085
1711	1.7015e+02	-5.9369	-53.197338	0.000568	5.675118	0.961391	0.000114
1712	1.7024e+02	-5.9164	-53.156966	0.000203	2.026828	0.343354	0.000041
1713	1.7034e+02	-5.8966	-53.043926	0.000568	5.675118	0.961391	0.000114
1714	1.7044e+02	-5.8762	-52.934924	0.000547	5.472435	0.927056	0.000110
1715	1.7054e+02	-5.8560	-52.854181	0.000405	4.053655	0.686708	0.000081
1716	1.7064e+02	-5.8365	-52.757290	0.000486	4.864386	0.824049	0.000097
1717	1.7074e+02	-5.8166	-52.632139	0.000628	6.283166	1.064397	0.000126
1718	1.7084e+02	-5.7967	-52.571582	0.000304	3.040242	0.515031	0.000061
1719	1.7094e+02	-5.7773	-52.450468	0.000608	6.080483	1.030062	0.000122
1720	1.7104e+02	-5.7568	-52.357613	0.000466	4.661704	0.789714	0.000093
1721	1.7114e+02	-5.7355	-52.276871	0.000405	4.053655	0.686708	0.000081
1722	1.7124e+02	-5.7169	-52.236499	0.000203	2.026828	0.343354	0.000041
1723	1.7134e+02	-5.6960	-52.135571	0.000507	5.067069	0.858385	0.000101
1724	1.7144e+02	-5.6766	-52.014457	0.000608	6.080483	1.030062	0.000122
1725	1.7154e+02	-5.6570	-51.945826	0.000345	3.445607	0.583702	0.000069
1726	1.7164e+02	-5.6375	-51.873157	0.000365	3.648290	0.618037	0.000073
1727	1.7174e+02	-5.6171	-51.723783	0.000750	7.499262	1.270409	0.000150
1728	1.7184e+02	-5.5975	-51.691486	0.000162	1.621462	0.274683	0.000032
1729	1.7194e+02	-5.5774	-51.554223	0.000689	6.891214	1.167403	0.000138
1730	1.7204e+02	-5.5573	-51.449258	0.000527	5.269752	0.892720	0.000105
1731	1.7213e+02	-5.5377	-51.360441	0.000446	4.459021	0.755379	0.000089
1732	1.7223e+02	-5.5171	-51.283735	0.000385	3.850973	0.652372	0.000077
1733	1.7233e+02	-5.4971	-51.146473	0.000689	6.891214	1.167403	0.000138
1734	1.7243e+02	-5.4781	-51.098027	0.000243	2.432193	0.412025	0.000049
1735	1.7253e+02	-5.4573	-51.017284	0.000405	4.053655	0.686708	0.000081
1736	1.7263e+02	-5.4383	-50.912319	0.000527	5.269752	0.892720	0.000105
1737	1.7273e+02	-5.4180	-50.884059	0.000142	1.418779	0.240348	0.000028
1738	1.7283e+02	-5.3990	-50.742759	0.000709	7.093897	1.201739	0.000142
1739	1.7293e+02	-5.3769	-50.617608	0.000628	6.283166	1.064397	0.000126
1740	1.7303e+02	-5.3580	-50.508605	0.000547	5.472435	0.927056	0.000110
1741	1.7313e+02	-5.3374	-50.391528	0.000588	5.877800	0.995726	0.000118
1742	1.7323e+02	-5.3177	-50.347120	0.000223	2.229510	0.377689	0.000045
1743	1.7333e+02	-5.2982	-50.238117	0.000547	5.472435	0.927056	0.000110
1744	1.7343e+02	-5.2782	-50.133152	0.000527	5.269752	0.892720	0.000105
1745	1.7353e+02	-5.2582	-50.028186	0.000527	5.269752	0.892720	0.000105
1746	1.7363e+02	-5.2387	-49.967629	0.000304	3.040242	0.515031	0.000061
1747	1.7373e+02	-5.2182	-49.850552	0.000588	5.877800	0.995726	0.000118
1748	1.7383e+02	-5.1982	-49.757698	0.000466	4.661704	0.789714	0.000093
1749	1.7393e+02	-5.1787	-49.672918	0.000426	4.256338	0.721043	0.000085
1750	1.7403e+02	-5.1588	-49.567953	0.000527	5.269752	0.892720	0.000105
1751	1.7413e+02	-5.1390	-49.475098	0.000466	4.661704	0.789714	0.000093
1752	1.7422e+02	-5.1187	-49.374170	0.000507	5.067069	0.858385	0.000101
1753	1.7432e+02	-5.0989	-49.265167	0.000547	5.472435	0.927056	0.000110
1754	1.7442e+02	-5.0787	-49.184425	0.000405	4.053655	0.686708	0.000081
1755	1.7452e+02	-5.0595	-49.095608	0.000446	4.459021	0.755379	0.000089
1756	1.7462e+02	-5.0391	-48.982568	0.000568	5.675118	0.961391	0.000114
1757	1.7472e+02	-5.0195	-48.873565	0.000547	5.472435	0.927056	0.000110
1758	1.7482e+02	-4.9999	-48.792823	0.000405	4.053655	0.686708	0.000081
1759	1.7492e+02	-4.9791	-48.687857	0.000527	5.269752	0.892720	0.000105
1760	1.7502e+02	-4.9597	-48.590966	0.000486	4.864386	0.824049	0.000097
1761	1.7512e+02	-4.9400	-48.530409	0.000304	3.040242	0.515031	0.000061
1762	1.7522e+02	-4.9207	-48.397183	0.000669	6.688531	1.133068	0.000134
1763	1.7532e+02	-4.9002	-48.284143	0.000568	5.675118	0.961391	0.000114
1764	1.7542e+02	-4.8798	-48.175141	0.000547	5.472435	0.927056	0.000110
1765	1.7552e+02	-4.8598	-48.126695	0.000243	2.432193	0.412025	0.000049
1766	1.7562e+02	-4.8399	-47.997507	0.000649	6.485849	1.098733	0.000130
1767	1.7572e+02	-4.8209	-47.888504	0.000547	5.472435	0.927056	0.000110
1768	1.7582e+02	-4.7998	-47.819873	0.000345	3.445607	0.583702	0.000069
1769	1.7592e+02	-4.7803	-47.678573	0.000709	7.093897	1.201739	0.000142
1770	1.7602e+02	-4.7606	-47.638202	0.000203	2.026828	0.343354	0.000041
1771	1.7612e+02	-4.7403	-47.529199	0.000547	5.472435	0.927056	0.000110
1772	1.7621e+02	-4.7212	-47.387899	0.000709	7.093897	1.201739	0.000142
1773	1.7631e+02	-4.7000	-47.319268	0.000345	3.445607	0.583702	0.000069
1774	1.7641e+02	-4.6796	-47.222377	0.000486	4.864386	0.824049	0.000097
1775	1.7651e+02	-4.6606	-47.121448	0.000507	5.067069	0.858385	0.000101
1776	1.7661e+02	-4.6410	-47.032631	0.000446	4.459021	0.755379	0.000089
1777	1.7671e+02	-4.6204	-46.923629	0.000547	5.472435	0.927056	0.000110
1778	1.7681e+02	-4.6008	-46.786366	0.000689	6.891214	1.167403	0.000138
1779	1.7691e+02	-4.5813	-46.713698	0.000365	3.648290	0.618037	0.000073
1780	1.7701e+02	-4.5609	-46.604695	0.000547	5.472435	0.927056	0.000110
1781	1.7711e+02	-4.5407	-46.503767	0.000507	5.067069	0.858385	0.000101
1782	1.7721e+02	-4.5215	-46.402838	0.000507	5.067069	0.858385	0.000101
1783	1.7731e+02	-4.5022	-46.322095	0.000405	4.053655	0.686708	0.000081
1784	1.7741e+02	-4.4815	-46.192907	0.000649	6.485849	1.098733	0.000130
1785	1.7751e+02	-4.4611	-46.120239	0.000365	3.648290	0.618037	0.000073
1786	1.7761e+02	-4.4414	-46.007199	0.000568	5.675118	0.961391	0.000114
1787	1.7771e+02	-4.4217	-45.902233	0.000527	5.269752	0.892720	0.000105
1788	1.7781e+02	-4.4014	-45.801305	0.000507	5.067069	0.858385	0.000101
1789	1.7791e+02	-4.3822	-45.712488	0.000446	4.459021	0.755379	0.000089
1790	1.7801e+02	-4.3625	-45.587337	0.000628	6.283166	1.064397	0.000126
1791	1.7810e+02	-4.3414	-45.474297	0.000568	5.675118	0.961391	0.000114
1792	1.7820e+02	-4.3225	-45.393554	0.000405	4.053655	0.686708	0.000081
1793	1.7830e+02	-4.3024	-45.280514	0.000568	5.675118	0.961391	0.000114
1794	1.7840e+02	-4.2822	-45.143252	0.000689	6.891214	1.167403	0.000138
1795	1.7850e+02	-4.2628	-45.046361	0.000486	4.864386	0.824049	0.000097
1796	1.7860e+02	-4.2426	-44.965618	0.000405	4.053655	0.686708	0.000081
1797	1.7870e+02	-4.2226	-44.868727	0.000486	4.864386	0.824049	0.000097
1798	1.7880e+02	-4.2023	-44.796058	0.000365	3.648290	0.618037	0.000073
1799	1.7890e+02	-4.1818	-44.642647	0.000770	7.701945	1.304745	0.000154
1800	1.7900e+02	-4.1620	-44.525570	0.000588	5.877800	0.995726	0.000118
1801	1.7910e+02	-4.1431	-44.428679	0.000486	4.864386	0.824049	0.000097
1802	1.7920e+02	-4.1226	-44.335825	0.000466	4.661704	0.789714	0.000093
1803	1.7930e+02	-4.1035	-44.247008	0.000446	4.459021	0.755379	0.000089
1804	1.7940e+02	-4.0833	-44.154154	0.000466	4.661704	0.789714	0.000093
1805	1.7950e+02	-4.0630	-44.012854	0.000709	7.093897	1.201739	0.000142
1806	1.7960e+02	-4.0430	-43.903851	0.000547	5.472435	0.927056	0.000110
1807	1.7970e+02	-4.0238	-43.798886	0.000527	5.269752	0.892720	0.000105
1808	1.7980e+02	-4.0031	-43.693920	0.000527	5.269752	0.892720	0.000105
1809	1.7990e+02	-3.9835	-43.625289	0.000345	3.445607	0.583702	0.000069
1810	1.8000e+02	-3.9645	-43.479952	0.000730	7.296580	1.236074	0.000146
1811	1.8009e+02	-3.9437	-43.383061	0.000486	4.864386	0.824049	0.000097
1812	1.8019e+02	-3.9227	-43.274058	0.000547	5.472435	0.927056	0.000110
1813	1.8029e+02	-3.9046	-43.165055	0.000547	5.472435	0.927056	0.000110
1814	1.8039e+02	-3.8832	-43.047978	0.000588	5.877800	0.995726	0.000118
1815	1.8049e+02	-3.8631	-42.930901	0.000588	5.877800	0.995726	0.000118
1816	1.8059e+02	-3.8440	-42.874382	0.000284	2.837559	0.480695	0.000057
1817	1.8069e+02	-3.8237	-42.741156	0.000669	6.688531	1.133068	0.000134
1818	1.8079e+02	-3.8029	-42.611968	0.000649	6.485849	1.098733	0.000130
1819	1.8089e+02	-3.7838	-42.490854	0.000608	6.080483	1.030062	0.000122
1820	1.8099e+02	-3.7650	-42.406074	0.000426	4.256338	0.721043	0.000085
1821	1.8109e+02	-3.7431	-42.309183	0.000486	4.864386	0.824049	0.000097
1822	1.8119e+02	-3.7247	-42.196143	0.000568	5.675118	0.961391	0.000114
1823	1.8129e+02	-3.7039	-42.111363	0.000426	4.256338	0.721043	0.000085
1824	1.8139e+02	-3.6846	-41.970063	0.000709	7.093897	1.201739	0.000142
1825	1.8149e+02	-3.6646	-41.857023	0.000568	5.675118	0.961391	0.000114
1826	1.8159e+02	-3.6452	-41.735909	0.000608	6.080483	1.030062	0.000122
1827	1.8169e+02	-3.6253	-41.655167	0.000405	4.053655	0.686708	0.000081
1828	1.8179e+02	-3.6057	-41.525978	0.000649	6.485849	1.098733	0.000130
1829	1.8189e+02	-3.5847	-41.453310	0.000365	3.648290	0.618037	0.000073
1830	1.8199e+02	-3.5651	-41.348344	0.000527	5.269752	0.892720	0.000105
1831	1.8209e+02	-3.5449	-41.243379	0.000527	5.269752	0.892720	0.000105
1832	1.8218e+02	-3.5256	-41.130339	0.000568	5.675118	0.961391	0.000114
1833	1.8228e+02	-3.5051	-41.017299	0.000568	5.675118	0.961391	0.000114
1834	1.8238e+02	-3.4855	-40.863888	0.000770	7.701945	1.304745	0.000154
1835	1.8248e+02	-3.4651	-40.791219	0.000365	3.648290	0.618037	0.000073
1836	1.8258e+02	-3.4457	-40.678180	0.000568	5.675118	0.961391	0.000114
1837	1.8268e+02	-3.4254	-40.581288	0.000486	4.864386	0.824049	0.000097
1838	1.8278e+02	-3.4064	-40.435952	0.000730	7.296580	1.236074	0.000146
1839	1.8288e+02	-3.3862	-40.347135	0.000446	4.459021	0.755379	0.000089
1840	1.8298e+02	-3.3665	-40.234095	0.000568	5.675118	0.961391	0.000114
1841	1.8308e+02	-3.3456	-40.145278	0.000446	4.459021	0.755379	0.000089
1842	1.8318e+02	-3.3260	-40.024164	0.000608	6.080483	1.030062	0.000122
1843	1.8328e+02	-3.3062	-39.886901	0.000689	6.891214	1.167403	0.000138
1844	1.8338e+02	-3.2876	-39.757713	0.000649	6.485849	1.098733	0.000130
1845	1.8348e+02	-3.2655	-39.672933	0.000426	4.256338	0.721043	0.000085
1846	1.8358e+02	-3.2465	-39.576042	0.000486	4.864386	0.824049	0.000097
1847	1.8368e+02	-3.2259	-39.467039	0.000547	5.472435	0.927056	0.000110
1848	1.8378e+02	-3.2054	-39.333813	0.000669	6.688531	1.133068	0.000134
1849	1.8388e+02	-3.1857	-39.220774	0.000568	5.675118	0.961391	0.000114
1850	1.8398e+02	-3.1667	-39.103697	0.000588	5.877800	0.995726	0.000118
1851	1.8407e+02	-3.1474	-38.998731	0.000527	5.269752	0.892720	0.000105
1852	1.8417e+02	-3.1262	-38.853394	0.000730	7.296580	1.236074	0.000146
1853	1.8427e+02	-3.1070	-38.776689	0.000385	3.850973	0.652372	0.000077
1854	1.8437e+02	-3.0869	-38.643463	0.000669	6.688531	1.133068	0.000134
1855	1.8447e+02	-3.0673	-38.530423	0.000568	5.675118	0.961391	0.000114
1856	1.8457e+02	-3.0467	-38.417384	0.000568	5.675118	0.961391	0.000114
1857	1.8467e+02	-3.0265	-38.320492	0.000486	4.864386	0.824049	0.000097
1858	1.8477e+02	-3.0075	-38.199378	0.000608	6.080483	1.030062	0.000122
1859	1.8487e+02	-2.9869	-38.082301	0.000588	5.877800	0.995726	0.000118
1860	1.8497e+02	-2.9671	-37.949076	0.000669	6.688531	1.133068	0.000134
1861	1.8507e+02	-2.9474	-37.880445	0.000345	3.445607	0.583702	0.000069
1862	1.8517e+02	-2.9272	-37.739145	0.000709	7.093897	1.201739	0.000142
1863	1.8527e+02	-2.9077	-37.618031	0.000608	6.080483	1.030062	0.000122
1864	1.8537e+02	-2.8878	-37.513065	0.000527	5.269752	0.892720	0.000105
1865	1.8547e+02	-2.8674	-37.400025	0.000568	5.675118	0.961391	0.000114
1866	1.8557e+02	-2.8488	-37.303134	0.000486	4.864386	0.824049	0.000097
1867	1.8567e+02	-2.8277	-37.186057	0.000588	5.877800	0.995726	0.000118
1868	1.8577e+02	-2.8075	-37.073017	0.000568	5.675118	0.961391	0.000114
1869	1.8587e+02	-2.7882	-36.972089	0.000507	5.067069	0.858385	0.000101
1870	1.8597e+02	-2.7686	-36.855012	0.000588	5.877800	0.995726	0.000118
1871	1.8606e+02	-2.7477	-36.729861	0.000628	6.283166	1.064397	0.000126
1872	1.8616e+02	-2.7293	-36.564338	0.000831	8.309994	1.407751	0.000166
1873	1.8626e+02	-2.7084	-36.463410	0.000507	5.067069	0.858385	0.000101
1874	1.8636e+02	-2.6872	-36.370556	0.000466	4.661704	0.789714	0.000093
1875	1.8646e+02	-2.6682	-36.273665	0.000486	4.864386	0.824049	0.000097
1876	1.8656e+02	-2.6486	-36.160625	0.000568	5.675118	0.961391	0.000114
1877	1.8666e+02	-2.6286	-36.019325	0.000709	7.093897	1.201739	0.000142
1878	1.8676e+02	-2.6086	-35.886100	0.000669	6.688531	1.133068	0.000134
1879	1.8686e+02	-2.5886	-35.773060	0.000568	5.675118	0.961391	0.000114
1880	1.8696e+02	-2.5681	-35.672131	0.000507	5.067069	0.858385	0.000101
1881	1.8706e+02	-2.5481	-35.587352	0.000426	4.256338	0.721043	0.000085
1882	1.8716e+02	-2.5276	-35.413755	0.000872	8.715359	1.476422	0.000174
1883	1.8726e+02	-2.5093	-35.353198	0.000304	3.040242	0.515031	0.000061
1884	1.8736e+02	-2.4895	-35.232084	0.000608	6.080483	1.030062	0.000122
1885	1.8746e+02	-2.4692	-35.086747	0.000730	7.296580	1.236074	0.000146
1886	1.8756e+02	-2.4503	-34.989855	0.000486	4.864386	0.824049	0.000097
1887	1.8766e+02	-2.4300	-34.848556	0.000709	7.093897	1.201739	0.000142
1888	1.8776e+02	-2.4094	-34.743590	0.000527	5.269752	0.892720	0.000105
1889	1.8786e+02	-2.3901	-34.654773	0.000446	4.459021	0.755379	0.000089
1890	1.8796e+02	-2.3706	-34.521548	0.000669	6.688531	1.133068	0.000134
1891	1.8806e+02	-2.3503	-34.412545	0.000547	5.472435	0.927056	0.000110
1892	1.8815e+02	-2.3291	-34.279320	0.000669	6.688531	1.133068	0.000134
1893	1.8825e+02	-2.3102	-34.178391	0.000507	5.067069	0.858385	0.000101
1894	1.8835e+02	-2.2905	-34.045166	0.000669	6.688531	1.133068	0.000134
1895	1.8845e+02	-2.2703	-33.903866	0.000709	7.093897	1.201739	0.000142
1896	1.8855e+02	-2.2501	-33.790826	0.000568	5.675118	0.961391	0.000114
1897	1.8865e+02	-2.2296	-33.641452	0.000750	7.499262	1.270409	0.000150
1898	1.8875e+02	-2.2119	-33.572821	0.000345	3.445607	0.583702	0.000069
1899	1.8885e+02	-2.1904	-33.427484	0.000730	7.296580	1.236074	0.000146
1900	1.8895e+02	-2.1709	-33.318481	0.000547	5.472435	0.927056	0.000110
1901	1.8905e+02	-2.1518	-33.233701	0.000426	4.256338	0.721043	0.000085
1902	1.8915e+02	-2.1312	-33.108550	0.000628	6.283166	1.064397	0.000126
1903	1.8925e+02	-2.1114	-33.007622	0.000507	5.067069	0.858385	0.000101
1904	1.8935e+02	-2.0902	-32.813839	0.000973	9.728773	1.648099	0.000195
1905	1.8945e+02	-2.0704	-32.741171	0.000365	3.648290	0.618037	0.000073
1906	1.8955e+02	-2.0511	-32.620057	0.000608	6.080483	1.030062	0.000122
1907	1.8965e+02	-2.0309	-32.470683	0.000750	7.499262	1.270409	0.000150
1908	1.8975e+02	-2.0102	-32.377829	0.000466	4.661704	0.789714	0.000093
1909	1.8985e+02	-1.9913	-32.240566	0.000689	6.891214	1.167403	0.000138
1910	1.8995e+02	-1.9718	-32.143675	0.000486	4.864386	0.824049	0.000097
1911	1.9004e+02	-1.9524	-32.046783	0.000486	4.864386	0.824049	0.000097
1912	1.9014e+02	-1.9316	-31.869150	0.000892	8.918042	1.510757	0.000179
1913	1.9024e+02	-1.9118	-31.784370	0.000426	4.256338	0.721043	0.000085
1914	1.9034e+02	-1.8921	-31.675367	0.000547	5.472435	0.927056	0.000110
1915	1.9044e+02	-1.8715	-31.554253	0.000608	6.080483	1.030062	0.000122
1916	1.9054e+02	-1.8515	-31.425065	0.000649	6.485849	1.098733	0.000130
1917	1.9064e+02	-1.8318	-31.271653	0.000770	7.701945	1.304745	0.000154
1918	1.9074e+02	-1.8120	-31.154576	0.000588	5.877800	0.995726	0.000118
1919	1.9084e+02	-1.7918	-31.021351	0.000669	6.688531	1.133068	0.000134
1920	1.9094e+02	-1.7723	-30.904274	0.000588	5.877800	0.995726	0.000118
1921	1.9104e+02	-1.7526	-30.791234	0.000568	5.675118	0.961391	0.000114
1922	1.9114e+02	-1.7319	-30.690306	0.000507	5.067069	0.858385	0.000101
1923	1.9124e+02	-1.7120	-30.585340	0.000527	5.269752	0.892720	0.000105
1924	1.9134e+02	-1.6917	-30.440003	0.000730	7.296580	1.236074	0.000146
1925	1.9144e+02	-1.6727	-30.310815	0.000649	6.485849	1.098733	0.000130
1926	1.9154e+02	-1.6524	-30.189701	0.000608	6.080483	1.030062	0.000122
1927	1.9164e+02	-1.6320	-30.068587	0.000608	6.080483	1.030062	0.000122
1928	1.9174e+02	-1.6130	-29.971696	0.000486	4.864386	0.824049	0.000097
1929	1.9184e+02	-1.5928	-29.838470	0.000669	6.688531	1.133068	0.000134
1930	1.9194e+02	-1.5728	-29.725430	0.000568	5.675118	0.961391	0.000114
1931	1.9203e+02	-1.5536	-29.616428	0.000547	5.472435	0.927056	0.000110
1932	1.9213e+02	-1.5339	-29.487239	0.000649	6.485849	1.098733	0.000130
1933	1.9223e+02	-1.5137	-29.337865	0.000750	7.499262	1.270409	0.000150
1934	1.9233e+02	-1.4925	-29.240974	0.000486	4.864386	0.824049	0.000097
1935	1.9243e+02	-1.4734	-29.136009	0.000527	5.269752	0.892720	0.000105
1936	1.9253e+02	-1.4536	-28.974523	0.000811	8.107311	1.373416	0.000162
1937	1.9263e+02	-1.4341	-28.885706	0.000446	4.459021	0.755379	0.000089
1938	1.9273e+02	-1.4130	-28.772666	0.000568	5.675118	0.961391	0.000114
1939	1.9283e+02	-1.3927	-28.619255	0.000770	7.701945	1.304745	0.000154
1940	1.9293e+02	-1.3736	-28.490067	0.000649	6.485849	1.098733	0.000130
1941	1.9303e+02	-1.3537	-28.405287	0.000426	4.256338	0.721043	0.000085
1942	1.9313e+02	-1.3341	-28.223616	0.000912	9.120725	1.545093	0.000183
1943	1.9323e+02	-1.3138	-28.167096	0.000284	2.837559	0.480695	0.000057
1944	1.9333e+02	-1.2934	-28.009648	0.000790	7.904628	1.339080	0.000158
1945	1.9343e+02	-1.2740	-27.932942	0.000385	3.850973	0.652372	0.000077
1946	1.9353e+02	-1.2535	-27.763382	0.000851	8.512676	1.442086	0.000170
1947	1.9363e+02	-1.2341	-27.650343	0.000568	5.675118	0.961391	0.000114
1948	1.9373e+02	-1.2147	-27.513080	0.000689	6.891214	1.167403	0.000138
1949	1.9383e+02	-1.1942	-27.448486	0.000324	3.242924	0.549366	0.000065
1950	1.9393e+02	-1.1747	-27.307186	0.000709	7.093897	1.201739	0.000142
1951	1.9403e+02	-1.1539	-27.153775	0.000770	7.701945	1.304745	0.000154
1952	1.9412e+02	-1.1349	-27.048809	0.000527	5.269752	0.892720	0.000105
1953	1.9422e+02	-1.1139	-26.931733	0.000588	5.877800	0.995726	0.000118
1954	1.9432e+02	-1.0949	-26.814656	0.000588	5.877800	0.995726	0.000118
1955	1.9442e+02	-1.0742	-26.677393	0.000689	6.891214	1.167403	0.000138
1956	1.9452e+02	-1.0560	-26.568390	0.000547	5.472435	0.927056	0.000110
1957	1.9462e+02	-1.0345	-26.435165	0.000669	6.688531	1.133068	0.000134
1958	1.9472e+02	-1.0156	-26.269642	0.000831	8.309994	1.407751	0.000166
1959	1.9482e+02	-0.9953	-26.176788	0.000466	4.661704	0.789714	0.000093
1960	1.9492e+02	-0.9750	-26.055674	0.000608	6.080483	1.030062	0.000122
1961	1.9502e+02	-0.9550	-25.922449	0.000669	6.688531	1.133068	0.000134
1962	1.9512e+02	-0.9367	-25.837669	0.000426	4.256338	0.721043	0.000085
1963	1.9522e+02	-0.9163	-25.712518	0.000628	6.283166	1.064397	0.000126
1964	1.9532e+02	-0.8950	-25.567181	0.000730	7.296580	1.236074	0.000146
1965	1.9542e+02	-0.8756	-25.454141	0.000568	5.675118	0.961391	0.000114
1966	1.9552e+02	-0.8558	-25.333027	0.000608	6.080483	1.030062	0.000122
1967	1.9562e+02	-0.8353	-25.195764	0.000689	6.891214	1.167403	0.000138
1968	1.9572e+02	-0.8166	-25.119059	0.000385	3.850973	0.652372	0.000077
1969	1.9582e+02	-0.7948	-24.957573	0.000811	8.107311	1.373416	0.000162
1970	1.9592e+02	-0.7749	-24.800125	0.000790	7.904628	1.339080	0.000158
1971	1.9601e+02	-0.7565	-24.687085	0.000568	5.675118	0.961391	0.000114
1972	1.9611e+02	-0.7357	-24.614417	0.000365	3.648290	0.618037	0.000073
1973	1.9621e+02	-0.7159	-24.424671	0.000953	9.526090	1.613763	0.000191
1974	1.9631e+02	-0.6964	-24.372188	0.000263	2.634876	0.446360	0.000053
1975	1.9641e+02	-0.6760	-24.182443	0.000953	9.526090	1.613763	0.000191
1976	1.9651e+02	-0.6567	-24.069403	0.000568	5.675118	0.961391	0.000114
1977	1.9661e+02	-0.6360	-23.956363	0.000568	5.675118	0.961391	0.000114
1978	1.9671e+02	-0.6167	-23.843324	0.000568	5.675118	0.961391	0.000114
1979	1.9681e+02	-0.5966	-23.738358	0.000527	5.269752	0.892720	0.000105
1980	1.9691e+02	-0.5765	-23.572836	0.000831	8.309994	1.407751	0.000166
1981	1.9701e+02	-0.5560	-23.451722	0.000608	6.080483	1.030062	0.000122
1982	1.9711e+02	-0.5374	-23.318496	0.000669	6.688531	1.133068	0.000134
1983	1.9721e+02	-0.5166	-23.185271	0.000669	6.688531	1.133068	0.000134
1984	1.9731e+02	-0.4972	-23.084342	0.000507	5.067069	0.858385	0.000101
1985	1.9741e+02	-0.4768	-22.930931	0.000770	7.701945	1.304745	0.000154
1986	1.9751e+02	-0.4579	-22.850188	0.000405	4.053655	0.686708	0.000081
1987	1.9761e+02	-0.4376	-22.712926	0.000689	6.891214	1.167403	0.000138
1988	1.9771e+02	-0.4172	-22.632183	0.000405	4.053655	0.686708	0.000081
1989	1.9781e+02	-0.3976	-22.478772	0.000770	7.701945	1.304745	0.000154
1990	1.9791e+02	-0.3771	-22.341509	0.000689	6.891214	1.167403	0.000138
1991	1.9800e+02	-0.3571	-22.196172	0.000730	7.296580	1.236074	0.000146
1992	1.9810e+02	-0.3372	-22.030650	0.000831	8.309994	1.407751	0.000166
1993	1.9820e+02	-0.3169	-21.970093	0.000304	3.040242	0.515031	0.000061
1994	1.9830e+02	-0.2975	-21.812644	0.000790	7.904628	1.339080	0.000158
1995	1.9840e+02	-0.2784	-21.719790	0.000466	4.661704	0.789714	0.000093
1996	1.9850e+02	-0.2574	-21.594639	0.000628	6.283166	1.064397	0.000126
1997	1.9860e+02	-0.2383	-21.465451	0.000649	6.485849	1.098733	0.000130
1998	1.9870e+02	-0.2180	-21.344337	0.000608	6.080483	1.030062	0.000122
1999	1.9880e+02	-0.1976	-21.203037	0.000709	7.093897	1.201739	0.000142
2000	1.9890e+02	-0.1779	-21.065774	0.000689	6.891214	1.167403	0.000138
2001	1.9900e+02	-0.1585	-20.980994	0.000426	4.256338	0.721043	0.000085
2002	1.9910e+02	-0.1376	-20.835658	0.000730	7.296580	1.236074	0.000146
2003	1.9920e+02	-0.1176	-20.730692	0.000527	5.269752	0.892720	0.000105
2004	1.9930e+02	-0.0979	-20.597467	0.000669	6.688531	1.133068	0.000134
2005	1.9940e+02	-0.0777	-20.460204	0.000689	6.891214	1.167403	0.000138
2006	1.9950e+02	-0.0586	-20.335053	0.000628	6.283166	1.064397	0.000126
2007	1.9960e+02	-0.0384	-20.197790	0.000689	6.891214	1.167403	0.000138
2008	1.9970e+02	-0.0151	-20.064565	0.000669	6.688531	1.133068	0.000134
2009	1.9980e+02	0.0002	-19.955562	0.000669	6.688531	1.133068	0.000110

PMax (uC/cm2):	5.35e+01
Pr (uC/cm2):	4.10e+00
-Pr (uC/cm2):	-3.03e+01
PLoss (uC/cm2):	-3.03e+01
-Vc:	-6.44e-01
C (Max-Eff) (nF):	5.35e-01
K (Eff):	9.07e+02
Vert. (+/-Pr) Shift (uC/cm2):	-1.31e+01
Offset (uC/cm2):	-1.04e+01

A (Loop Area - uC/cm2·Volts):	-6.72e-02



Hysteresis Version: 5.48.1 - Radiant Technologies, Inc., 1999 - 9/12/24

