»»»»»»»»»»»»»»»»»»»»»»»»»»»»»»»»»»»» Hysteresis ««««««««««««««««««««««««««««««««««««
»»»  Executed Version:	5.48.1
»»»  Vision Version:	5.48.4 (R)
»»»  Vision Compiled:	9/18/24
»»»  Driver Version:	5.47.0
»»»  Windows Version:	Windows 8 or 8.1
»»»  Processor Information:	x86 (AMD or Intel) - 32 Processors
»»»  Tester Name:	PMF21124-494 (100V)
»»»  Tester S/N:	PMF21124-494
»»»  Internal Amp Type:	100V RevK 270k
»»»  Internal Amp S/N:	iAB2-596/K     
»»»  Execution Count:	1
»»»»»»»»»»»»»»»»»»»»»»»»»»»»»»»»»»»»»»»»»»««««««««««««««««««««««««««««««««««««««««««

Stored:	7/7/2025 - 15:17:3
Configured:	07/07/25 01:27:50 PM
Executed:	07/07/25 03:16:33 PM

»»»»»»»»»»»»»»»»»»»»»»»»»»»»»»»»»»» Sample Info ««««««««««««««««««««««««««««««««««««
Sample Name:	
Lot Name:	
Wafer Name:	
Die Row/Column:	0/0
Capacitor Number:	0
Sample Area (cm2):	1.00e-04
Sample Thickness (microns):	1.50e-01

Amplifier:	Internal

»»»»»»»»»»»»»»»»»»»»»»»»»»»»»»»»»»» Tester Info «««««««««««««««««««««««««««««««««««
Tester Name:	PMF21124-494 (100V)
Tester Serial Number:	PMF21124-494
Return Signal Amp. Level:	0.19 [Index: 3]

»»»»»»»»»»»»»»»»»»»»»»»»»»»»»»»» Hysteresis Info ««««««««««««««««««««««««««««««««««
Task Name:	Hyst-528
Volts:	10.00
Field:	666.67 (kV/cm)
DCBias:	0.00
DCField:	0.00 (kV/cm)
Hysteresis Period (ms):	2.00e+02
Preset:	Enabled
Preset Delay (ms):	1.00e+03
Profile:	Standard Bipolar

»»»»»»»»»»»»»»»»»»»»»»»»»»»»»»»»»»»»»» Data «««««««««««««««««««««««««««««««««««««««
Points:	2009

Valid Data

Point	Time (ms)	Drive Voltage	Measured Polarization (uC/cm2)	Capacitance (uF)	Normalized Capacitance (uF/cm2)	Dielectric Constant	Instantaneous Current (mA)
   1	0.0000e+00	0.0003	10.765022	0.000709	7.094560	1.201851	0.000142
   2	9.9500e-02	0.0183	10.906322	0.000709	7.094560	1.201851	0.000142
   3	1.9900e-01	0.0394	10.974954	0.000345	3.445929	0.583756	0.000069
   4	2.9850e-01	0.0588	11.108179	0.000669	6.689157	1.133174	0.000134
   5	3.9800e-01	0.0793	11.265627	0.000791	7.905367	1.339205	0.000158
   6	4.9750e-01	0.0996	11.386741	0.000608	6.081051	1.030158	0.000122
   7	5.9700e-01	0.1189	11.479595	0.000466	4.662139	0.789788	0.000093
   8	6.9650e-01	0.1402	11.604747	0.000628	6.283753	1.064497	0.000126
   9	7.9600e-01	0.1589	11.721824	0.000588	5.878350	0.995819	0.000118
  10	8.9550e-01	0.1785	11.814678	0.000466	4.662139	0.789788	0.000093
  11	9.9500e-01	0.1987	11.964052	0.000750	7.499964	1.270528	0.000150
  12	1.0945e+00	0.2180	12.077092	0.000568	5.675648	0.961481	0.000114
  13	1.1940e+00	0.2390	12.178020	0.000507	5.067543	0.858465	0.000101
  14	1.2935e+00	0.2579	12.327394	0.000750	7.499964	1.270528	0.000150
  15	1.3930e+00	0.2782	12.452545	0.000628	6.283753	1.064497	0.000126
  16	1.4925e+00	0.2985	12.557511	0.000527	5.270245	0.892804	0.000105
  17	1.5920e+00	0.3191	12.682662	0.000628	6.283753	1.064497	0.000126
  18	1.6915e+00	0.3384	12.844147	0.000811	8.108069	1.373544	0.000162
  19	1.7910e+00	0.3571	12.912779	0.000345	3.445929	0.583756	0.000069
  20	1.8905e+00	0.3773	13.054078	0.000709	7.094560	1.201851	0.000142
  21	1.9900e+00	0.3979	13.163081	0.000547	5.472946	0.927142	0.000110
  22	2.0895e+00	0.4175	13.292269	0.000649	6.486455	1.098835	0.000130
  23	2.1890e+00	0.4380	13.445681	0.000770	7.702665	1.304867	0.000154
  24	2.2885e+00	0.4577	13.550646	0.000527	5.270245	0.892804	0.000105
  25	2.3880e+00	0.4781	13.679834	0.000649	6.486455	1.098835	0.000130
  26	2.4875e+00	0.4979	13.800949	0.000608	6.081051	1.030158	0.000122
  27	2.5870e+00	0.5173	13.954360	0.000770	7.702665	1.304867	0.000154
  28	2.6865e+00	0.5385	14.018954	0.000324	3.243227	0.549418	0.000065
  29	2.7860e+00	0.5574	14.208699	0.000953	9.526981	1.613914	0.000191
  30	2.8855e+00	0.5777	14.317702	0.000547	5.472946	0.927142	0.000110
  31	2.9850e+00	0.5962	14.418630	0.000507	5.067543	0.858465	0.000101
  32	3.0845e+00	0.6173	14.535707	0.000588	5.878350	0.995819	0.000118
  33	3.1840e+00	0.6368	14.640673	0.000527	5.270245	0.892804	0.000105
  34	3.2835e+00	0.6561	14.818307	0.000892	8.918876	1.510898	0.000179
  35	3.3830e+00	0.6774	14.919235	0.000507	5.067543	0.858465	0.000101
  36	3.4825e+00	0.6960	15.040349	0.000608	6.081051	1.030158	0.000122
  37	3.5820e+00	0.7165	15.189723	0.000750	7.499964	1.270528	0.000150
  38	3.6815e+00	0.7370	15.298726	0.000547	5.472946	0.927142	0.000110
  39	3.7810e+00	0.7574	15.456174	0.000791	7.905367	1.339205	0.000158
  40	3.8805e+00	0.7764	15.544991	0.000446	4.459438	0.755449	0.000089
  41	3.9800e+00	0.7964	15.702439	0.000791	7.905367	1.339205	0.000158
  42	4.0795e+00	0.8160	15.855851	0.000770	7.702665	1.304867	0.000154
  43	4.1790e+00	0.8362	15.989076	0.000669	6.689157	1.133174	0.000134
  44	4.2785e+00	0.8571	16.069819	0.000405	4.054034	0.686772	0.000081
  45	4.3780e+00	0.8767	16.211119	0.000709	7.094560	1.201851	0.000142
  46	4.4775e+00	0.8958	16.348381	0.000689	6.891858	1.167512	0.000138
  47	4.5770e+00	0.9158	16.509867	0.000811	8.108069	1.373544	0.000162
  48	4.6765e+00	0.9356	16.606758	0.000486	4.864841	0.824126	0.000097
  49	4.7760e+00	0.9557	16.687501	0.000405	4.054034	0.686772	0.000081
  50	4.8755e+00	0.9766	16.861097	0.000872	8.716174	1.476560	0.000174
  51	4.9750e+00	0.9962	16.966063	0.000527	5.270245	0.892804	0.000105
  52	5.0745e+00	1.0158	17.099288	0.000669	6.689157	1.133174	0.000134
  53	5.1740e+00	1.0360	17.228477	0.000649	6.486455	1.098835	0.000130
  54	5.2735e+00	1.0548	17.345554	0.000588	5.878350	0.995819	0.000118
  55	5.3730e+00	1.0751	17.438408	0.000466	4.662139	0.789788	0.000093
  56	5.4725e+00	1.0952	17.591819	0.000770	7.702665	1.304867	0.000154
  57	5.5720e+00	1.1156	17.757342	0.000831	8.310770	1.407883	0.000166
  58	5.6715e+00	1.1343	17.866344	0.000547	5.472946	0.927142	0.000110
  59	5.7710e+00	1.1557	17.999570	0.000669	6.689157	1.133174	0.000134
  60	5.8705e+00	1.1755	18.092424	0.000466	4.662139	0.789788	0.000093
  61	5.9700e+00	1.1943	18.278132	0.000932	9.324279	1.579576	0.000187
  62	6.0695e+00	1.2152	18.342726	0.000324	3.243227	0.549418	0.000065
  63	6.1690e+00	1.2346	18.504212	0.000811	8.108069	1.373544	0.000162
  64	6.2685e+00	1.2541	18.629363	0.000628	6.283753	1.064497	0.000126
  65	6.3680e+00	1.2744	18.762588	0.000669	6.689157	1.133174	0.000134
  66	6.4675e+00	1.2940	18.891777	0.000649	6.486455	1.098835	0.000130
  67	6.5670e+00	1.3136	19.016928	0.000628	6.283753	1.064497	0.000126
  68	6.6665e+00	1.3337	19.121893	0.000527	5.270245	0.892804	0.000105
  69	6.7660e+00	1.3536	19.255119	0.000669	6.689157	1.133174	0.000134
  70	6.8655e+00	1.3734	19.384307	0.000649	6.486455	1.098835	0.000130
  71	6.9650e+00	1.3937	19.545793	0.000811	8.108069	1.373544	0.000162
  72	7.0645e+00	1.4125	19.703241	0.000791	7.905367	1.339205	0.000158
  73	7.1640e+00	1.4342	19.808206	0.000527	5.270245	0.892804	0.000105
  74	7.2635e+00	1.4529	19.913172	0.000527	5.270245	0.892804	0.000105
  75	7.3630e+00	1.4733	20.070620	0.000791	7.905367	1.339205	0.000158
  76	7.4625e+00	1.4934	20.203846	0.000669	6.689157	1.133174	0.000134
  77	7.5620e+00	1.5124	20.337071	0.000669	6.689157	1.133174	0.000134
  78	7.6615e+00	1.5343	20.462222	0.000628	6.283753	1.064497	0.000126
  79	7.7610e+00	1.5532	20.563151	0.000507	5.067543	0.858465	0.000101
  80	7.8605e+00	1.5732	20.696376	0.000669	6.689157	1.133174	0.000134
  81	7.9600e+00	1.5945	20.878047	0.000912	9.121577	1.545237	0.000183
  82	8.0595e+00	1.6126	20.995124	0.000588	5.878350	0.995819	0.000118
  83	8.1590e+00	1.6322	21.124313	0.000649	6.486455	1.098835	0.000130
  84	8.2585e+00	1.6531	21.237353	0.000568	5.675648	0.961481	0.000114
  85	8.3580e+00	1.6724	21.398838	0.000811	8.108069	1.373544	0.000162
  86	8.4575e+00	1.6926	21.548212	0.000750	7.499964	1.270528	0.000150
  87	8.5570e+00	1.7117	21.657215	0.000547	5.472946	0.927142	0.000110
  88	8.6565e+00	1.7325	21.806589	0.000750	7.499964	1.270528	0.000150
  89	8.7560e+00	1.7521	21.935777	0.000649	6.486455	1.098835	0.000130
  90	8.8555e+00	1.7719	22.073040	0.000689	6.891858	1.167512	0.000138
  91	8.9550e+00	1.7918	22.173968	0.000507	5.067543	0.858465	0.000101
  92	9.0545e+00	1.8124	22.331416	0.000791	7.905367	1.339205	0.000158
  93	9.1540e+00	1.8325	22.492902	0.000811	8.108069	1.373544	0.000162
  94	9.2535e+00	1.8511	22.597867	0.000527	5.270245	0.892804	0.000105
  95	9.3530e+00	1.8710	22.718981	0.000608	6.081051	1.030158	0.000122
  96	9.4525e+00	1.8920	22.856244	0.000689	6.891858	1.167512	0.000138
  97	9.5520e+00	1.9115	23.001581	0.000730	7.297262	1.236190	0.000146
  98	9.6515e+00	1.9316	23.154992	0.000770	7.702665	1.304867	0.000154
  99	9.7510e+00	1.9517	23.280143	0.000628	6.283753	1.064497	0.000126
 100	9.8505e+00	1.9717	23.372997	0.000466	4.662139	0.789788	0.000093
 101	9.9500e+00	1.9921	23.566780	0.000973	9.729682	1.648253	0.000195
 102	1.0050e+01	2.0112	23.667708	0.000507	5.067543	0.858465	0.000101
 103	1.0149e+01	2.0312	23.817082	0.000750	7.499964	1.270528	0.000150
 104	1.0248e+01	2.0513	23.954345	0.000689	6.891858	1.167512	0.000138
 105	1.0348e+01	2.0709	24.075459	0.000608	6.081051	1.030158	0.000122
 106	1.0447e+01	2.0911	24.216759	0.000709	7.094560	1.201851	0.000142
 107	1.0547e+01	2.1111	24.317687	0.000507	5.067543	0.858465	0.000101
 108	1.0646e+01	2.1311	24.519544	0.001014	10.135086	1.716930	0.000203
 109	1.0746e+01	2.1517	24.616435	0.000486	4.864841	0.824126	0.000097
 110	1.0845e+01	2.1707	24.761772	0.000730	7.297262	1.236190	0.000146
 111	1.0945e+01	2.1909	24.890960	0.000649	6.486455	1.098835	0.000130
 112	1.1044e+01	2.2107	24.999963	0.000547	5.472946	0.927142	0.000110
 113	1.1144e+01	2.2308	25.149337	0.000750	7.499964	1.270528	0.000150
 114	1.1243e+01	2.2504	25.290637	0.000709	7.094560	1.201851	0.000142
 115	1.1343e+01	2.2711	25.452122	0.000811	8.108069	1.373544	0.000162
 116	1.1443e+01	2.2909	25.565162	0.000568	5.675648	0.961481	0.000114
 117	1.1542e+01	2.3106	25.690313	0.000628	6.283753	1.064497	0.000126
 118	1.1642e+01	2.3296	25.827576	0.000689	6.891858	1.167512	0.000138
 119	1.1741e+01	2.3501	25.964838	0.000689	6.891858	1.167512	0.000138
 120	1.1841e+01	2.3686	26.094027	0.000649	6.486455	1.098835	0.000130
 121	1.1940e+01	2.3894	26.223215	0.000649	6.486455	1.098835	0.000130
 122	1.2040e+01	2.4097	26.352404	0.000649	6.486455	1.098835	0.000130
 123	1.2139e+01	2.4303	26.481592	0.000649	6.486455	1.098835	0.000130
 124	1.2239e+01	2.4499	26.626929	0.000730	7.297262	1.236190	0.000146
 125	1.2338e+01	2.4705	26.784377	0.000791	7.905367	1.339205	0.000158
 126	1.2438e+01	2.4882	26.921640	0.000689	6.891858	1.167512	0.000138
 127	1.2537e+01	2.5098	26.998345	0.000385	3.851333	0.652433	0.000077
 128	1.2636e+01	2.5299	27.200202	0.001014	10.135086	1.716930	0.000203
 129	1.2736e+01	2.5502	27.317279	0.000588	5.878350	0.995819	0.000118
 130	1.2835e+01	2.5698	27.434356	0.000588	5.878350	0.995819	0.000118
 131	1.2935e+01	2.5919	27.571619	0.000689	6.891858	1.167512	0.000138
 132	1.3034e+01	2.6089	27.729067	0.000791	7.905367	1.339205	0.000158
 133	1.3134e+01	2.6285	27.870367	0.000709	7.094560	1.201851	0.000142
 134	1.3233e+01	2.6479	27.995518	0.000628	6.283753	1.064497	0.000126
 135	1.3333e+01	2.6690	28.132780	0.000689	6.891858	1.167512	0.000138
 136	1.3432e+01	2.6880	28.261969	0.000649	6.486455	1.098835	0.000130
 137	1.3532e+01	2.7082	28.403268	0.000709	7.094560	1.201851	0.000142
 138	1.3632e+01	2.7287	28.560717	0.000791	7.905367	1.339205	0.000158
 139	1.3731e+01	2.7486	28.693942	0.000669	6.689157	1.133174	0.000134
 140	1.3831e+01	2.7686	28.798908	0.000527	5.270245	0.892804	0.000105
 141	1.3930e+01	2.7885	28.964430	0.000831	8.310770	1.407883	0.000166
 142	1.4030e+01	2.8085	29.089582	0.000628	6.283753	1.064497	0.000126
 143	1.4129e+01	2.8275	29.198584	0.000547	5.472946	0.927142	0.000110
 144	1.4229e+01	2.8474	29.372181	0.000872	8.716174	1.476560	0.000174
 145	1.4328e+01	2.8671	29.521555	0.000750	7.499964	1.270528	0.000150
 146	1.4428e+01	2.8878	29.642669	0.000608	6.081051	1.030158	0.000122
 147	1.4527e+01	2.9080	29.775895	0.000669	6.689157	1.133174	0.000134
 148	1.4627e+01	2.9278	29.892972	0.000588	5.878350	0.995819	0.000118
 149	1.4726e+01	2.9479	30.054457	0.000811	8.108069	1.373544	0.000162
 150	1.4825e+01	2.9668	30.211905	0.000791	7.905367	1.339205	0.000158
 151	1.4925e+01	2.9865	30.316871	0.000527	5.270245	0.892804	0.000105
 152	1.5024e+01	3.0080	30.470282	0.000770	7.702665	1.304867	0.000154
 153	1.5124e+01	3.0277	30.631767	0.000811	8.108069	1.373544	0.000162
 154	1.5223e+01	3.0479	30.764993	0.000669	6.689157	1.133174	0.000134
 155	1.5323e+01	3.0674	30.857847	0.000466	4.662139	0.789788	0.000093
 156	1.5422e+01	3.0869	30.995110	0.000689	6.891858	1.167512	0.000138
 157	1.5522e+01	3.1069	31.140447	0.000730	7.297262	1.236190	0.000146
 158	1.5621e+01	3.1275	31.269635	0.000649	6.486455	1.098835	0.000130
 159	1.5721e+01	3.1469	31.406897	0.000689	6.891858	1.167512	0.000138
 160	1.5820e+01	3.1670	31.540123	0.000669	6.689157	1.133174	0.000134
 161	1.5920e+01	3.1861	31.697571	0.000791	7.905367	1.339205	0.000158
 162	1.6020e+01	3.2070	31.818685	0.000608	6.081051	1.030158	0.000122
 163	1.6119e+01	3.2262	31.972096	0.000770	7.702665	1.304867	0.000154
 164	1.6218e+01	3.2461	32.105322	0.000669	6.689157	1.133174	0.000134
 165	1.6318e+01	3.2664	32.230473	0.000628	6.283753	1.064497	0.000126
 166	1.6418e+01	3.2861	32.351587	0.000608	6.081051	1.030158	0.000122
 167	1.6517e+01	3.3052	32.496924	0.000730	7.297262	1.236190	0.000146
 168	1.6616e+01	3.3263	32.642261	0.000730	7.297262	1.236190	0.000146
 169	1.6716e+01	3.3459	32.783561	0.000709	7.094560	1.201851	0.000142
 170	1.6816e+01	3.3652	32.876415	0.000466	4.662139	0.789788	0.000093
 171	1.6915e+01	3.3867	33.033863	0.000791	7.905367	1.339205	0.000158
 172	1.7015e+01	3.4056	33.154977	0.000608	6.081051	1.030158	0.000122
 173	1.7114e+01	3.4261	33.336648	0.000912	9.121577	1.545237	0.000183
 174	1.7213e+01	3.4469	33.437577	0.000507	5.067543	0.858465	0.000101
 175	1.7313e+01	3.4655	33.558691	0.000608	6.081051	1.030158	0.000122
 176	1.7413e+01	3.4853	33.691916	0.000669	6.689157	1.133174	0.000134
 177	1.7512e+01	3.5050	33.845327	0.000770	7.702665	1.304867	0.000154
 178	1.7611e+01	3.5250	34.002776	0.000791	7.905367	1.339205	0.000158
 179	1.7711e+01	3.5459	34.115816	0.000568	5.675648	0.961481	0.000114
 180	1.7811e+01	3.5650	34.220781	0.000527	5.270245	0.892804	0.000105
 181	1.7910e+01	3.5845	34.394378	0.000872	8.716174	1.476560	0.000174
 182	1.8009e+01	3.6051	34.499343	0.000527	5.270245	0.892804	0.000105
 183	1.8109e+01	3.6249	34.632569	0.000669	6.689157	1.133174	0.000134
 184	1.8209e+01	3.6452	34.749646	0.000588	5.878350	0.995819	0.000118
 185	1.8308e+01	3.6649	34.870760	0.000608	6.081051	1.030158	0.000122
 186	1.8407e+01	3.6852	35.060505	0.000953	9.526981	1.613914	0.000191
 187	1.8507e+01	3.7054	35.112988	0.000264	2.635122	0.446402	0.000053
 188	1.8607e+01	3.7246	35.294659	0.000912	9.121577	1.545237	0.000183
 189	1.8706e+01	3.7444	35.403662	0.000547	5.472946	0.927142	0.000110
 190	1.8805e+01	3.7646	35.540924	0.000689	6.891858	1.167512	0.000138
 191	1.8905e+01	3.7837	35.649927	0.000547	5.472946	0.927142	0.000110
 192	1.9005e+01	3.8039	35.787190	0.000689	6.891858	1.167512	0.000138
 193	1.9104e+01	3.8250	35.948675	0.000811	8.108069	1.373544	0.000162
 194	1.9203e+01	3.8442	36.089975	0.000709	7.094560	1.201851	0.000142
 195	1.9303e+01	3.8640	36.203015	0.000568	5.675648	0.961481	0.000114
 196	1.9402e+01	3.8828	36.328166	0.000628	6.283753	1.064497	0.000126
 197	1.9502e+01	3.9031	36.449280	0.000608	6.081051	1.030158	0.000122
 198	1.9602e+01	3.9230	36.590580	0.000709	7.094560	1.201851	0.000142
 199	1.9701e+01	3.9428	36.715731	0.000628	6.283753	1.064497	0.000126
 200	1.9800e+01	3.9635	36.865105	0.000750	7.499964	1.270528	0.000150
 201	1.9900e+01	3.9841	36.998330	0.000669	6.689157	1.133174	0.000134
 202	2.0000e+01	4.0043	37.147704	0.000750	7.499964	1.270528	0.000150
 203	2.0099e+01	4.0232	37.256707	0.000547	5.472946	0.927142	0.000110
 204	2.0198e+01	4.0432	37.361673	0.000527	5.270245	0.892804	0.000105
 205	2.0298e+01	4.0636	37.502972	0.000709	7.094560	1.201851	0.000142
 206	2.0398e+01	4.0823	37.656384	0.000770	7.702665	1.304867	0.000154
 207	2.0497e+01	4.1027	37.789609	0.000669	6.689157	1.133174	0.000134
 208	2.0596e+01	4.1230	37.898612	0.000547	5.472946	0.927142	0.000110
 209	2.0696e+01	4.1428	38.035874	0.000689	6.891858	1.167512	0.000138
 210	2.0796e+01	4.1631	38.173137	0.000689	6.891858	1.167512	0.000138
 211	2.0895e+01	4.1824	38.274065	0.000507	5.067543	0.858465	0.000101
 212	2.0994e+01	4.2022	38.447662	0.000872	8.716174	1.476560	0.000174
 213	2.1094e+01	4.2233	38.560702	0.000568	5.675648	0.961481	0.000114
 214	2.1194e+01	4.2426	38.685853	0.000628	6.283753	1.064497	0.000126
 215	2.1293e+01	4.2626	38.806967	0.000608	6.081051	1.030158	0.000122
 216	2.1392e+01	4.2828	38.948267	0.000709	7.094560	1.201851	0.000142
 217	2.1492e+01	4.3017	39.057270	0.000547	5.472946	0.927142	0.000110
 218	2.1591e+01	4.3223	39.166272	0.000547	5.472946	0.927142	0.000110
 219	2.1691e+01	4.3418	39.279312	0.000568	5.675648	0.961481	0.000114
 220	2.1791e+01	4.3621	39.408501	0.000649	6.486455	1.098835	0.000130
 221	2.1890e+01	4.3822	39.578060	0.000851	8.513472	1.442221	0.000170
 222	2.1989e+01	4.4022	39.691100	0.000568	5.675648	0.961481	0.000114
 223	2.2089e+01	4.4218	39.747620	0.000284	2.837824	0.480740	0.000057
 224	2.2189e+01	4.4430	39.933328	0.000932	9.324279	1.579576	0.000187
 225	2.2288e+01	4.4616	40.058479	0.000628	6.283753	1.064497	0.000126
 226	2.2387e+01	4.4820	40.131148	0.000365	3.648631	0.618095	0.000073
 227	2.2487e+01	4.5013	40.276485	0.000730	7.297262	1.236190	0.000146
 228	2.2587e+01	4.5207	40.393562	0.000588	5.878350	0.995819	0.000118
 229	2.2686e+01	4.5415	40.530824	0.000689	6.891858	1.167512	0.000138
 230	2.2785e+01	4.5617	40.676161	0.000730	7.297262	1.236190	0.000146
 231	2.2885e+01	4.5812	40.777090	0.000507	5.067543	0.858465	0.000101
 232	2.2985e+01	4.6017	40.930501	0.000770	7.702665	1.304867	0.000154
 233	2.3084e+01	4.6209	41.015281	0.000426	4.256736	0.721111	0.000085
 234	2.3183e+01	4.6417	41.140432	0.000628	6.283753	1.064497	0.000126
 235	2.3283e+01	4.6612	41.277694	0.000689	6.891858	1.167512	0.000138
 236	2.3383e+01	4.6819	41.414957	0.000689	6.891858	1.167512	0.000138
 237	2.3482e+01	4.6999	41.532034	0.000588	5.878350	0.995819	0.000118
 238	2.3581e+01	4.7211	41.665259	0.000669	6.689157	1.133174	0.000134
 239	2.3681e+01	4.7405	41.778299	0.000568	5.675648	0.961481	0.000114
 240	2.3780e+01	4.7610	41.879228	0.000507	5.067543	0.858465	0.000101
 241	2.3880e+01	4.7805	42.016490	0.000689	6.891858	1.167512	0.000138
 242	2.3980e+01	4.8006	42.149716	0.000669	6.689157	1.133174	0.000134
 243	2.4079e+01	4.8202	42.258718	0.000547	5.472946	0.927142	0.000110
 244	2.4178e+01	4.8402	42.400018	0.000709	7.094560	1.201851	0.000142
 245	2.4278e+01	4.8597	42.492872	0.000466	4.662139	0.789788	0.000093
 246	2.4378e+01	4.8792	42.654358	0.000811	8.108069	1.373544	0.000162
 247	2.4477e+01	4.8998	42.718952	0.000324	3.243227	0.549418	0.000065
 248	2.4576e+01	4.9198	42.872363	0.000770	7.702665	1.304867	0.000154
 249	2.4676e+01	4.9394	43.029811	0.000791	7.905367	1.339205	0.000158
 250	2.4776e+01	4.9584	43.138814	0.000547	5.472946	0.927142	0.000110
 251	2.4875e+01	4.9795	43.251854	0.000568	5.675648	0.961481	0.000114
 252	2.4974e+01	5.0004	43.377005	0.000628	6.283753	1.064497	0.000126
 253	2.5074e+01	5.0193	43.457748	0.000405	4.054034	0.686772	0.000081
 254	2.5174e+01	5.0397	43.627307	0.000851	8.513472	1.442221	0.000170
 255	2.5273e+01	5.0591	43.720161	0.000466	4.662139	0.789788	0.000093
 256	2.5372e+01	5.0787	43.841276	0.000608	6.081051	1.030158	0.000122
 257	2.5472e+01	5.0997	43.942204	0.000507	5.067543	0.858465	0.000101
 258	2.5572e+01	5.1188	44.083504	0.000709	7.094560	1.201851	0.000142
 259	2.5671e+01	5.1392	44.228841	0.000730	7.297262	1.236190	0.000146
 260	2.5770e+01	5.1583	44.325732	0.000486	4.864841	0.824126	0.000097
 261	2.5870e+01	5.1791	44.430697	0.000527	5.270245	0.892804	0.000105
 262	2.5970e+01	5.1984	44.576034	0.000730	7.297262	1.236190	0.000146
 263	2.6069e+01	5.2186	44.685037	0.000547	5.472946	0.927142	0.000110
 264	2.6169e+01	5.2383	44.802114	0.000588	5.878350	0.995819	0.000118
 265	2.6268e+01	5.2581	44.919191	0.000588	5.878350	0.995819	0.000118
 266	2.6367e+01	5.2782	45.080676	0.000811	8.108069	1.373544	0.000162
 267	2.6467e+01	5.2987	45.173530	0.000466	4.662139	0.789788	0.000093
 268	2.6567e+01	5.3179	45.294644	0.000608	6.081051	1.030158	0.000122
 269	2.6666e+01	5.3379	45.431907	0.000689	6.891858	1.167512	0.000138
 270	2.6765e+01	5.3576	45.544947	0.000568	5.675648	0.961481	0.000114
 271	2.6865e+01	5.3782	45.637801	0.000466	4.662139	0.789788	0.000093
 272	2.6965e+01	5.3985	45.762952	0.000628	6.283753	1.064497	0.000126
 273	2.7064e+01	5.4183	45.900215	0.000689	6.891858	1.167512	0.000138
 274	2.7163e+01	5.4372	46.017292	0.000588	5.878350	0.995819	0.000118
 275	2.7263e+01	5.4581	46.130332	0.000568	5.675648	0.961481	0.000114
 276	2.7363e+01	5.4772	46.227223	0.000486	4.864841	0.824126	0.000097
 277	2.7462e+01	5.4978	46.332188	0.000527	5.270245	0.892804	0.000105
 278	2.7561e+01	5.5164	46.497711	0.000831	8.310770	1.407883	0.000166
 279	2.7661e+01	5.5376	46.582491	0.000426	4.256736	0.721111	0.000085
 280	2.7761e+01	5.5565	46.715716	0.000669	6.689157	1.133174	0.000134
 281	2.7860e+01	5.5778	46.820682	0.000527	5.270245	0.892804	0.000105
 282	2.7959e+01	5.5965	46.953907	0.000669	6.689157	1.133174	0.000134
 283	2.8059e+01	5.6181	47.050798	0.000486	4.864841	0.824126	0.000097
 284	2.8159e+01	5.6370	47.159801	0.000547	5.472946	0.927142	0.000110
 285	2.8258e+01	5.6565	47.305138	0.000730	7.297262	1.236190	0.000146
 286	2.8358e+01	5.6759	47.410104	0.000527	5.270245	0.892804	0.000105
 287	2.8457e+01	5.6973	47.502958	0.000466	4.662139	0.789788	0.000093
 288	2.8556e+01	5.7169	47.648295	0.000730	7.297262	1.236190	0.000146
 289	2.8656e+01	5.7366	47.725000	0.000385	3.851333	0.652433	0.000077
 290	2.8756e+01	5.7561	47.862263	0.000689	6.891858	1.167512	0.000138
 291	2.8855e+01	5.7767	47.991451	0.000649	6.486455	1.098835	0.000130
 292	2.8954e+01	5.7963	48.084305	0.000466	4.662139	0.789788	0.000093
 293	2.9054e+01	5.8167	48.237716	0.000770	7.702665	1.304867	0.000154
 294	2.9154e+01	5.8359	48.334608	0.000486	4.864841	0.824126	0.000097
 295	2.9253e+01	5.8569	48.447647	0.000568	5.675648	0.961481	0.000114
 296	2.9352e+01	5.8759	48.584910	0.000689	6.891858	1.167512	0.000138
 297	2.9452e+01	5.8959	48.697950	0.000568	5.675648	0.961481	0.000114
 298	2.9552e+01	5.9164	48.766581	0.000345	3.445929	0.583756	0.000069
 299	2.9651e+01	5.9362	48.928067	0.000811	8.108069	1.373544	0.000162
 300	2.9750e+01	5.9551	49.033032	0.000527	5.270245	0.892804	0.000105
 301	2.9850e+01	5.9756	49.166258	0.000669	6.689157	1.133174	0.000134
 302	2.9950e+01	5.9954	49.267186	0.000507	5.067543	0.858465	0.000101
 303	3.0049e+01	6.0160	49.380226	0.000568	5.675648	0.961481	0.000114
 304	3.0148e+01	6.0351	49.473080	0.000466	4.662139	0.789788	0.000093
 305	3.0248e+01	6.0546	49.610343	0.000689	6.891858	1.167512	0.000138
 306	3.0348e+01	6.0748	49.743568	0.000669	6.689157	1.133174	0.000134
 307	3.0447e+01	6.0949	49.856608	0.000568	5.675648	0.961481	0.000114
 308	3.0547e+01	6.1152	49.985796	0.000649	6.486455	1.098835	0.000130
 309	3.0646e+01	6.1343	50.082687	0.000486	4.864841	0.824126	0.000097
 310	3.0745e+01	6.1555	50.207839	0.000628	6.283753	1.064497	0.000126
 311	3.0845e+01	6.1746	50.349138	0.000709	7.094560	1.201851	0.000142
 312	3.0945e+01	6.1948	50.454104	0.000527	5.270245	0.892804	0.000105
 313	3.1044e+01	6.2151	50.563107	0.000547	5.472946	0.927142	0.000110
 314	3.1143e+01	6.2354	50.659998	0.000486	4.864841	0.824126	0.000097
 315	3.1243e+01	6.2550	50.793223	0.000669	6.689157	1.133174	0.000134
 316	3.1343e+01	6.2742	50.890115	0.000486	4.864841	0.824126	0.000097
 317	3.1442e+01	6.2946	51.027377	0.000689	6.891858	1.167512	0.000138
 318	3.1541e+01	6.3135	51.140417	0.000568	5.675648	0.961481	0.000114
 319	3.1641e+01	6.3346	51.233271	0.000466	4.662139	0.789788	0.000093
 320	3.1741e+01	6.3543	51.358422	0.000628	6.283753	1.064497	0.000126
 321	3.1840e+01	6.3735	51.483573	0.000628	6.283753	1.064497	0.000126
 322	3.1939e+01	6.3934	51.600650	0.000588	5.878350	0.995819	0.000118
 323	3.2039e+01	6.4129	51.721765	0.000608	6.081051	1.030158	0.000122
 324	3.2139e+01	6.4339	51.826730	0.000527	5.270245	0.892804	0.000105
 325	3.2238e+01	6.4532	51.927658	0.000507	5.067543	0.858465	0.000101
 326	3.2337e+01	6.4732	52.077032	0.000750	7.499964	1.270528	0.000150
 327	3.2437e+01	6.4931	52.129515	0.000264	2.635122	0.446402	0.000053
 328	3.2536e+01	6.5137	52.270815	0.000709	7.094560	1.201851	0.000142
 329	3.2636e+01	6.5328	52.347521	0.000385	3.851333	0.652433	0.000077
 330	3.2736e+01	6.5533	52.504969	0.000791	7.905367	1.339205	0.000158
 331	3.2835e+01	6.5728	52.638194	0.000669	6.689157	1.133174	0.000134
 332	3.2934e+01	6.5926	52.747197	0.000547	5.472946	0.927142	0.000110
 333	3.3034e+01	6.6125	52.827940	0.000405	4.054034	0.686772	0.000081
 334	3.3133e+01	6.6335	52.928868	0.000507	5.067543	0.858465	0.000101
 335	3.3233e+01	6.6515	53.058056	0.000649	6.486455	1.098835	0.000130
 336	3.3333e+01	6.6725	53.142836	0.000426	4.256736	0.721111	0.000085
 337	3.3432e+01	6.6921	53.284136	0.000709	7.094560	1.201851	0.000142
 338	3.3532e+01	6.7124	53.376990	0.000466	4.662139	0.789788	0.000093
 339	3.3631e+01	6.7318	53.518290	0.000709	7.094560	1.201851	0.000142
 340	3.3730e+01	6.7525	53.659590	0.000709	7.094560	1.201851	0.000142
 341	3.3830e+01	6.7727	53.724184	0.000324	3.243227	0.549418	0.000065
 342	3.3929e+01	6.7913	53.813001	0.000446	4.459438	0.755449	0.000089
 343	3.4029e+01	6.8122	53.950263	0.000689	6.891858	1.167512	0.000138
 344	3.4129e+01	6.8313	54.067340	0.000588	5.878350	0.995819	0.000118
 345	3.4228e+01	6.8523	54.172306	0.000527	5.270245	0.892804	0.000105
 346	3.4328e+01	6.8719	54.301494	0.000649	6.486455	1.098835	0.000130
 347	3.4427e+01	6.8911	54.382237	0.000405	4.054034	0.686772	0.000081
 348	3.4526e+01	6.9103	54.543722	0.000811	8.108069	1.373544	0.000162
 349	3.4626e+01	6.9308	54.612354	0.000345	3.445929	0.583756	0.000069
 350	3.4725e+01	6.9512	54.729431	0.000588	5.878350	0.995819	0.000118
 351	3.4825e+01	6.9711	54.838433	0.000547	5.472946	0.927142	0.000110
 352	3.4925e+01	6.9911	54.915139	0.000385	3.851333	0.652433	0.000077
 353	3.5024e+01	7.0119	55.076624	0.000811	8.108069	1.373544	0.000162
 354	3.5123e+01	7.0306	55.145256	0.000345	3.445929	0.583756	0.000069
 355	3.5223e+01	7.0508	55.246184	0.000507	5.067543	0.858465	0.000101
 356	3.5322e+01	7.0708	55.387484	0.000709	7.094560	1.201851	0.000142
 357	3.5422e+01	7.0901	55.484375	0.000486	4.864841	0.824126	0.000097
 358	3.5522e+01	7.1102	55.581266	0.000486	4.864841	0.824126	0.000097
 359	3.5621e+01	7.1304	55.690269	0.000547	5.472946	0.927142	0.000110
 360	3.5721e+01	7.1507	55.799272	0.000547	5.472946	0.927142	0.000110
 361	3.5820e+01	7.1709	55.900200	0.000507	5.067543	0.858465	0.000101
 362	3.5919e+01	7.1899	56.061685	0.000811	8.108069	1.373544	0.000162
 363	3.6019e+01	7.2099	56.118205	0.000284	2.837824	0.480740	0.000057
 364	3.6118e+01	7.2302	56.247394	0.000649	6.486455	1.098835	0.000130
 365	3.6218e+01	7.2503	56.356396	0.000547	5.472946	0.927142	0.000110
 366	3.6318e+01	7.2710	56.453288	0.000486	4.864841	0.824126	0.000097
 367	3.6417e+01	7.2903	56.574402	0.000608	6.081051	1.030158	0.000122
 368	3.6517e+01	7.3100	56.679367	0.000527	5.270245	0.892804	0.000105
 369	3.6616e+01	7.3313	56.788370	0.000547	5.472946	0.927142	0.000110
 370	3.6715e+01	7.3498	56.905447	0.000588	5.878350	0.995819	0.000118
 371	3.6815e+01	7.3693	57.002338	0.000486	4.864841	0.824126	0.000097
 372	3.6914e+01	7.3890	57.119415	0.000588	5.878350	0.995819	0.000118
 373	3.7014e+01	7.4094	57.248603	0.000649	6.486455	1.098835	0.000130
 374	3.7114e+01	7.4304	57.333383	0.000426	4.256736	0.721111	0.000085
 375	3.7213e+01	7.4491	57.470646	0.000689	6.891858	1.167512	0.000138
 376	3.7313e+01	7.4692	57.543314	0.000365	3.648631	0.618095	0.000073
 377	3.7412e+01	7.4899	57.644243	0.000507	5.067543	0.858465	0.000101
 378	3.7511e+01	7.5089	57.777468	0.000669	6.689157	1.133174	0.000134
 379	3.7611e+01	7.5293	57.882434	0.000527	5.270245	0.892804	0.000105
 380	3.7711e+01	7.5490	57.987399	0.000527	5.270245	0.892804	0.000105
 381	3.7810e+01	7.5690	58.096402	0.000547	5.472946	0.927142	0.000110
 382	3.7910e+01	7.5891	58.213479	0.000588	5.878350	0.995819	0.000118
 383	3.8009e+01	7.6078	58.257887	0.000223	2.229719	0.377725	0.000045
 384	3.8108e+01	7.6289	58.399187	0.000709	7.094560	1.201851	0.000142
 385	3.8208e+01	7.6482	58.504153	0.000527	5.270245	0.892804	0.000105
 386	3.8307e+01	7.6690	58.601044	0.000486	4.864841	0.824126	0.000097
 387	3.8407e+01	7.6884	58.693898	0.000466	4.662139	0.789788	0.000093
 388	3.8507e+01	7.7092	58.798863	0.000527	5.270245	0.892804	0.000105
 389	3.8606e+01	7.7284	58.940163	0.000709	7.094560	1.201851	0.000142
 390	3.8706e+01	7.7478	59.000720	0.000304	3.040526	0.515079	0.000061
 391	3.8805e+01	7.7678	59.121834	0.000608	6.081051	1.030158	0.000122
 392	3.8904e+01	7.7876	59.198540	0.000385	3.851333	0.652433	0.000077
 393	3.9004e+01	7.8076	59.335803	0.000689	6.891858	1.167512	0.000138
 394	3.9103e+01	7.8275	59.408471	0.000365	3.648631	0.618095	0.000073
 395	3.9203e+01	7.8470	59.517474	0.000547	5.472946	0.927142	0.000110
 396	3.9303e+01	7.8675	59.610328	0.000466	4.662139	0.789788	0.000093
 397	3.9402e+01	7.8885	59.755665	0.000730	7.297262	1.236190	0.000146
 398	3.9502e+01	7.9083	59.836407	0.000405	4.054034	0.686772	0.000081
 399	3.9601e+01	7.9278	59.941373	0.000527	5.270245	0.892804	0.000105
 400	3.9700e+01	7.9472	60.058450	0.000588	5.878350	0.995819	0.000118
 401	3.9800e+01	7.9675	60.147267	0.000446	4.459438	0.755449	0.000089
 402	3.9900e+01	7.9868	60.248195	0.000507	5.067543	0.858465	0.000101
 403	3.9999e+01	8.0069	60.324901	0.000385	3.851333	0.652433	0.000077
 404	4.0099e+01	8.0264	60.454089	0.000649	6.486455	1.098835	0.000130
 405	4.0198e+01	8.0462	60.546943	0.000466	4.662139	0.789788	0.000093
 406	4.0297e+01	8.0669	60.643834	0.000486	4.864841	0.824126	0.000097
 407	4.0397e+01	8.0871	60.768986	0.000628	6.283753	1.064497	0.000126
 408	4.0496e+01	8.1063	60.865877	0.000486	4.864841	0.824126	0.000097
 409	4.0596e+01	8.1268	60.946620	0.000405	4.054034	0.686772	0.000081
 410	4.0696e+01	8.1470	61.067734	0.000608	6.081051	1.030158	0.000122
 411	4.0795e+01	8.1671	61.144439	0.000385	3.851333	0.652433	0.000077
 412	4.0895e+01	8.1870	61.261516	0.000588	5.878350	0.995819	0.000118
 413	4.0994e+01	8.2066	61.354370	0.000466	4.662139	0.789788	0.000093
 414	4.1093e+01	8.2254	61.475484	0.000608	6.081051	1.030158	0.000122
 415	4.1193e+01	8.2459	61.576413	0.000507	5.067543	0.858465	0.000101
 416	4.1292e+01	8.2655	61.632933	0.000284	2.837824	0.480740	0.000057
 417	4.1392e+01	8.2861	61.818641	0.000932	9.324279	1.579576	0.000187
 418	4.1492e+01	8.3053	61.899384	0.000405	4.054034	0.686772	0.000081
 419	4.1591e+01	8.3257	61.984164	0.000426	4.256736	0.721111	0.000085
 420	4.1691e+01	8.3458	62.085092	0.000507	5.067543	0.858465	0.000101
 421	4.1790e+01	8.3651	62.177946	0.000466	4.662139	0.789788	0.000093
 422	4.1889e+01	8.3841	62.258689	0.000405	4.054034	0.686772	0.000081
 423	4.1989e+01	8.4053	62.335394	0.000385	3.851333	0.652433	0.000077
 424	4.2089e+01	8.4253	62.472657	0.000689	6.891858	1.167512	0.000138
 425	4.2188e+01	8.4453	62.597808	0.000628	6.283753	1.064497	0.000126
 426	4.2288e+01	8.4646	62.710848	0.000568	5.675648	0.961481	0.000114
 427	4.2387e+01	8.4845	62.803702	0.000466	4.662139	0.789788	0.000093
 428	4.2486e+01	8.5046	62.896556	0.000466	4.662139	0.789788	0.000093
 429	4.2586e+01	8.5247	63.037856	0.000709	7.094560	1.201851	0.000142
 430	4.2685e+01	8.5440	63.098413	0.000304	3.040526	0.515079	0.000061
 431	4.2785e+01	8.5645	63.199341	0.000507	5.067543	0.858465	0.000101
 432	4.2885e+01	8.5841	63.328530	0.000649	6.486455	1.098835	0.000130
 433	4.2984e+01	8.6040	63.421384	0.000466	4.662139	0.789788	0.000093
 434	4.3084e+01	8.6243	63.514238	0.000466	4.662139	0.789788	0.000093
 435	4.3183e+01	8.6442	63.615166	0.000507	5.067543	0.858465	0.000101
 436	4.3282e+01	8.6642	63.699946	0.000426	4.256736	0.721111	0.000085
 437	4.3382e+01	8.6845	63.792800	0.000466	4.662139	0.789788	0.000093
 438	4.3481e+01	8.7045	63.893729	0.000507	5.067543	0.858465	0.000101
 439	4.3581e+01	8.7241	64.018880	0.000628	6.283753	1.064497	0.000126
 440	4.3681e+01	8.7429	64.099623	0.000405	4.054034	0.686772	0.000081
 441	4.3780e+01	8.7640	64.248997	0.000750	7.499964	1.270528	0.000150
 442	4.3880e+01	8.7843	64.305517	0.000284	2.837824	0.480740	0.000057
 443	4.3979e+01	8.8037	64.426631	0.000608	6.081051	1.030158	0.000122
 444	4.4078e+01	8.8233	64.462965	0.000182	1.824315	0.309047	0.000037
 445	4.4178e+01	8.8428	64.571968	0.000547	5.472946	0.927142	0.000110
 446	4.4278e+01	8.8630	64.725379	0.000770	7.702665	1.304867	0.000154
 447	4.4377e+01	8.8821	64.777861	0.000264	2.635122	0.446402	0.000053
 448	4.4477e+01	8.9016	64.874753	0.000486	4.864841	0.824126	0.000097
 449	4.4576e+01	8.9240	65.020090	0.000730	7.297262	1.236190	0.000146
 450	4.4675e+01	8.9420	65.088721	0.000345	3.445929	0.583756	0.000069
 451	4.4775e+01	8.9625	65.213872	0.000628	6.283753	1.064497	0.000126
 452	4.4874e+01	8.9820	65.282503	0.000345	3.445929	0.583756	0.000069
 453	4.4974e+01	9.0025	65.355172	0.000365	3.648631	0.618095	0.000073
 454	4.5074e+01	9.0217	65.468212	0.000568	5.675648	0.961481	0.000114
 455	4.5173e+01	9.0421	65.589326	0.000608	6.081051	1.030158	0.000122
 456	4.5273e+01	9.0625	65.678143	0.000446	4.459438	0.755449	0.000089
 457	4.5372e+01	9.0820	65.815405	0.000689	6.891858	1.167512	0.000138
 458	4.5471e+01	9.1016	65.892111	0.000385	3.851333	0.652433	0.000077
 459	4.5571e+01	9.1218	65.960742	0.000345	3.445929	0.583756	0.000069
 460	4.5670e+01	9.1412	66.057634	0.000486	4.864841	0.824126	0.000097
 461	4.5770e+01	9.1622	66.146450	0.000446	4.459438	0.755449	0.000089
 462	4.5870e+01	9.1809	66.271602	0.000628	6.283753	1.064497	0.000126
 463	4.5969e+01	9.2016	66.416939	0.000730	7.297262	1.236190	0.000146
 464	4.6069e+01	9.2216	66.453273	0.000182	1.824315	0.309047	0.000037
 465	4.6168e+01	9.2414	66.582461	0.000649	6.486455	1.098835	0.000130
 466	4.6267e+01	9.2612	66.667241	0.000426	4.256736	0.721111	0.000085
 467	4.6367e+01	9.2806	66.772207	0.000527	5.270245	0.892804	0.000105
 468	4.6467e+01	9.3008	66.893321	0.000608	6.081051	1.030158	0.000122
 469	4.6566e+01	9.3204	67.010398	0.000588	5.878350	0.995819	0.000118
 470	4.6666e+01	9.3388	67.083066	0.000365	3.648631	0.618095	0.000073
 471	4.6765e+01	9.3597	67.175920	0.000466	4.662139	0.789788	0.000093
 472	4.6864e+01	9.3807	67.321257	0.000730	7.297262	1.236190	0.000146
 473	4.6964e+01	9.3986	67.406037	0.000426	4.256736	0.721111	0.000085
 474	4.7063e+01	9.4203	67.474668	0.000345	3.445929	0.583756	0.000069
 475	4.7163e+01	9.4415	67.615968	0.000709	7.094560	1.201851	0.000142
 476	4.7263e+01	9.4613	67.733045	0.000588	5.878350	0.995819	0.000118
 477	4.7362e+01	9.4806	67.805713	0.000365	3.648631	0.618095	0.000073
 478	4.7462e+01	9.4995	67.866270	0.000304	3.040526	0.515079	0.000061
 479	4.7561e+01	9.5190	67.987384	0.000608	6.081051	1.030158	0.000122
 480	4.7660e+01	9.5395	68.112536	0.000628	6.283753	1.064497	0.000126
 481	4.7760e+01	9.5591	68.221538	0.000547	5.472946	0.927142	0.000110
 482	4.7859e+01	9.5801	68.298244	0.000385	3.851333	0.652433	0.000077
 483	4.7959e+01	9.6000	68.439544	0.000709	7.094560	1.201851	0.000142
 484	4.8059e+01	9.6195	68.516249	0.000385	3.851333	0.652433	0.000077
 485	4.8158e+01	9.6400	68.633326	0.000588	5.878350	0.995819	0.000118
 486	4.8258e+01	9.6616	68.730217	0.000486	4.864841	0.824126	0.000097
 487	4.8357e+01	9.6793	68.823071	0.000466	4.662139	0.789788	0.000093
 488	4.8456e+01	9.6993	68.911888	0.000446	4.459438	0.755449	0.000089
 489	4.8556e+01	9.7192	69.024928	0.000568	5.675648	0.961481	0.000114
 490	4.8656e+01	9.7379	69.117782	0.000466	4.662139	0.789788	0.000093
 491	4.8755e+01	9.7583	69.218711	0.000507	5.067543	0.858465	0.000101
 492	4.8855e+01	9.7785	69.339825	0.000608	6.081051	1.030158	0.000122
 493	4.8954e+01	9.7987	69.440753	0.000507	5.067543	0.858465	0.000101
 494	4.9053e+01	9.8182	69.545719	0.000527	5.270245	0.892804	0.000105
 495	4.9153e+01	9.8389	69.666833	0.000608	6.081051	1.030158	0.000122
 496	4.9252e+01	9.8589	69.767761	0.000507	5.067543	0.858465	0.000101
 497	4.9352e+01	9.8794	69.832355	0.000324	3.243227	0.549418	0.000065
 498	4.9452e+01	9.8983	69.961544	0.000649	6.486455	1.098835	0.000130
 499	4.9551e+01	9.9176	70.042286	0.000405	4.054034	0.686772	0.000081
 500	4.9651e+01	9.9374	70.082658	0.000203	2.027017	0.343386	0.000041
 501	4.9750e+01	9.9585	70.211846	0.000649	6.486455	1.098835	0.000130
 502	4.9849e+01	9.9783	70.300663	0.000446	4.459438	0.755449	0.000089
 503	4.9949e+01	9.9974	70.417740	0.000588	5.878350	0.995819	0.000118
 504	5.0048e+01	9.9770	70.409666	0.000041	0.405403	0.068677	-0.000008
 505	5.0148e+01	9.9585	70.292589	0.000588	5.878350	0.995819	-0.000118
 506	5.0248e+01	9.9372	70.240106	0.000264	2.635122	0.446402	-0.000053
 507	5.0347e+01	9.9182	70.179549	0.000304	3.040526	0.515079	-0.000061
 508	5.0447e+01	9.8987	70.118992	0.000304	3.040526	0.515079	-0.000061
 509	5.0546e+01	9.8790	70.078621	0.000203	2.027017	0.343386	-0.000041
 510	5.0645e+01	9.8585	70.018064	0.000304	3.040526	0.515079	-0.000061
 511	5.0745e+01	9.8378	69.937321	0.000405	4.054034	0.686772	-0.000081
 512	5.0844e+01	9.8188	69.909061	0.000142	1.418912	0.240370	-0.000028
 513	5.0944e+01	9.7990	69.844467	0.000324	3.243227	0.549418	-0.000065
 514	5.1044e+01	9.7793	69.743538	0.000507	5.067543	0.858465	-0.000101
 515	5.1143e+01	9.7595	69.674907	0.000345	3.445929	0.583756	-0.000069
 516	5.1242e+01	9.7388	69.626462	0.000243	2.432421	0.412063	-0.000049
 517	5.1342e+01	9.7180	69.553793	0.000365	3.648631	0.618095	-0.000073
 518	5.1441e+01	9.6993	69.469013	0.000426	4.256736	0.721111	-0.000085
 519	5.1541e+01	9.6802	69.444790	0.000122	1.216210	0.206032	-0.000024
 520	5.1641e+01	9.6606	69.360011	0.000426	4.256736	0.721111	-0.000085
 521	5.1740e+01	9.6393	69.263119	0.000486	4.864841	0.824126	-0.000097
 522	5.1840e+01	9.6192	69.194488	0.000345	3.445929	0.583756	-0.000069
 523	5.1939e+01	9.5996	69.133931	0.000304	3.040526	0.515079	-0.000061
 524	5.2038e+01	9.5801	69.065300	0.000345	3.445929	0.583756	-0.000069
 525	5.2138e+01	9.5588	68.996668	0.000345	3.445929	0.583756	-0.000069
 526	5.2237e+01	9.5403	68.932074	0.000324	3.243227	0.549418	-0.000065
 527	5.2337e+01	9.5197	68.911888	0.000101	1.013509	0.171693	-0.000020
 528	5.2437e+01	9.5001	68.802886	0.000547	5.472946	0.927142	-0.000110
 529	5.2536e+01	9.4800	68.750403	0.000264	2.635122	0.446402	-0.000053
 530	5.2636e+01	9.4613	68.641400	0.000547	5.472946	0.927142	-0.000110
 531	5.2735e+01	9.4415	68.629289	0.000061	0.608105	0.103016	-0.000012
 532	5.2834e+01	9.4201	68.504138	0.000628	6.283753	1.064497	-0.000126
 533	5.2934e+01	9.4003	68.483952	0.000101	1.013509	0.171693	-0.000020
 534	5.3033e+01	9.3806	68.366875	0.000588	5.878350	0.995819	-0.000118
 535	5.3133e+01	9.3604	68.314392	0.000264	2.635122	0.446402	-0.000053
 536	5.3233e+01	9.3403	68.233650	0.000405	4.054034	0.686772	-0.000081
 537	5.3332e+01	9.3215	68.152907	0.000405	4.054034	0.686772	-0.000081
 538	5.3431e+01	9.3008	68.084276	0.000345	3.445929	0.583756	-0.000069
 539	5.3531e+01	9.2813	68.035830	0.000243	2.432421	0.412063	-0.000049
 540	5.3630e+01	9.2609	67.979310	0.000284	2.837824	0.480740	-0.000057
 541	5.3730e+01	9.2412	67.890493	0.000446	4.459438	0.755449	-0.000089
 542	5.3830e+01	9.2216	67.829936	0.000304	3.040526	0.515079	-0.000061
 543	5.3929e+01	9.2004	67.733045	0.000486	4.864841	0.824126	-0.000097
 544	5.4029e+01	9.1812	67.680562	0.000264	2.635122	0.446402	-0.000053
 545	5.4128e+01	9.1619	67.559448	0.000608	6.081051	1.030158	-0.000122
 546	5.4227e+01	9.1425	67.498891	0.000304	3.040526	0.515079	-0.000061
 547	5.4327e+01	9.1211	67.446408	0.000264	2.635122	0.446402	-0.000053
 548	5.4426e+01	9.1016	67.353554	0.000466	4.662139	0.789788	-0.000093
 549	5.4526e+01	9.0820	67.264737	0.000446	4.459438	0.755449	-0.000089
 550	5.4626e+01	9.0626	67.216291	0.000243	2.432421	0.412063	-0.000049
 551	5.4725e+01	9.0418	67.175920	0.000203	2.027017	0.343386	-0.000041
 552	5.4825e+01	9.0219	67.026546	0.000750	7.499964	1.270528	-0.000150
 553	5.4924e+01	9.0021	66.961952	0.000324	3.243227	0.549418	-0.000065
 554	5.5023e+01	8.9828	66.913506	0.000243	2.432421	0.412063	-0.000049
 555	5.5123e+01	8.9624	66.776244	0.000689	6.891858	1.167512	-0.000138
 556	5.5222e+01	8.9427	66.743947	0.000162	1.621614	0.274709	-0.000032
 557	5.5322e+01	8.9222	66.643018	0.000507	5.067543	0.858465	-0.000101
 558	5.5422e+01	8.9038	66.574387	0.000345	3.445929	0.583756	-0.000069
 559	5.5521e+01	8.8824	66.497681	0.000385	3.851333	0.652433	-0.000077
 560	5.5620e+01	8.8623	66.388679	0.000547	5.472946	0.927142	-0.000110
 561	5.5720e+01	8.8431	66.364456	0.000122	1.216210	0.206032	-0.000024
 562	5.5819e+01	8.8232	66.259490	0.000527	5.270245	0.892804	-0.000105
 563	5.5919e+01	8.8037	66.166636	0.000466	4.662139	0.789788	-0.000093
 564	5.6019e+01	8.7842	66.093968	0.000365	3.648631	0.618095	-0.000073
 565	5.6118e+01	8.7646	65.997076	0.000486	4.864841	0.824126	-0.000097
 566	5.6218e+01	8.7427	65.952668	0.000223	2.229719	0.377725	-0.000045
 567	5.6317e+01	8.7238	65.863851	0.000446	4.459438	0.755449	-0.000089
 568	5.6416e+01	8.7049	65.783108	0.000405	4.054034	0.686772	-0.000081
 569	5.6516e+01	8.6840	65.645846	0.000689	6.891858	1.167512	-0.000138
 570	5.6615e+01	8.6633	65.589326	0.000284	2.837824	0.480740	-0.000057
 571	5.6715e+01	8.6438	65.557029	0.000162	1.621614	0.274709	-0.000032
 572	5.6815e+01	8.6245	65.456100	0.000507	5.067543	0.858465	-0.000101
 573	5.6914e+01	8.6048	65.347098	0.000547	5.472946	0.927142	-0.000110
 574	5.7014e+01	8.5833	65.282503	0.000324	3.243227	0.549418	-0.000065
 575	5.7113e+01	8.5654	65.205798	0.000385	3.851333	0.652433	-0.000077
 576	5.7212e+01	8.5445	65.108907	0.000486	4.864841	0.824126	-0.000097
 577	5.7312e+01	8.5256	65.040275	0.000345	3.445929	0.583756	-0.000069
 578	5.7411e+01	8.5051	64.919161	0.000608	6.081051	1.030158	-0.000122
 579	5.7511e+01	8.4859	64.870716	0.000243	2.432421	0.412063	-0.000049
 580	5.7611e+01	8.4644	64.794010	0.000385	3.851333	0.652433	-0.000077
 581	5.7710e+01	8.4454	64.729416	0.000324	3.243227	0.549418	-0.000065
 582	5.7809e+01	8.4248	64.628487	0.000507	5.067543	0.858465	-0.000101
 583	5.7909e+01	8.4058	64.543708	0.000426	4.256736	0.721111	-0.000085
 584	5.8008e+01	8.3852	64.479113	0.000324	3.243227	0.549418	-0.000065
 585	5.8108e+01	8.3653	64.414519	0.000324	3.243227	0.549418	-0.000065
 586	5.8208e+01	8.3460	64.301479	0.000568	5.675648	0.961481	-0.000114
 587	5.8307e+01	8.3254	64.200551	0.000507	5.067543	0.858465	-0.000101
 588	5.8407e+01	8.3057	64.103660	0.000486	4.864841	0.824126	-0.000097
 589	5.8506e+01	8.2867	64.059251	0.000223	2.229719	0.377725	-0.000045
 590	5.8605e+01	8.2658	63.950249	0.000547	5.472946	0.927142	-0.000110
 591	5.8705e+01	8.2456	63.849320	0.000507	5.067543	0.858465	-0.000101
 592	5.8804e+01	8.2264	63.788763	0.000304	3.040526	0.515079	-0.000061
 593	5.8904e+01	8.2069	63.683798	0.000527	5.270245	0.892804	-0.000105
 594	5.9004e+01	8.1864	63.663612	0.000101	1.013509	0.171693	-0.000020
 595	5.9103e+01	8.1664	63.518275	0.000730	7.297262	1.236190	-0.000146
 596	5.9203e+01	8.1454	63.445607	0.000365	3.648631	0.618095	-0.000073
 597	5.9302e+01	8.1264	63.356790	0.000446	4.459438	0.755449	-0.000089
 598	5.9401e+01	8.1065	63.259898	0.000486	4.864841	0.824126	-0.000097
 599	5.9501e+01	8.0867	63.219527	0.000203	2.027017	0.343386	-0.000041
 600	5.9600e+01	8.0658	63.114562	0.000527	5.270245	0.892804	-0.000105
 601	5.9700e+01	8.0475	63.029782	0.000426	4.256736	0.721111	-0.000085
 602	5.9800e+01	8.0276	62.945002	0.000426	4.256736	0.721111	-0.000085
 603	5.9899e+01	8.0080	62.872333	0.000365	3.648631	0.618095	-0.000073
 604	5.9998e+01	7.9872	62.767368	0.000527	5.270245	0.892804	-0.000105
 605	6.0098e+01	7.9675	62.698737	0.000345	3.445929	0.583756	-0.000069
 606	6.0197e+01	7.9473	62.617994	0.000405	4.054034	0.686772	-0.000081
 607	6.0297e+01	7.9278	62.533214	0.000426	4.256736	0.721111	-0.000085
 608	6.0397e+01	7.9078	62.444397	0.000446	4.459438	0.755449	-0.000089
 609	6.0496e+01	7.8861	62.363654	0.000405	4.054034	0.686772	-0.000081
 610	6.0596e+01	7.8677	62.230429	0.000669	6.689157	1.133174	-0.000134
 611	6.0695e+01	7.8478	62.173909	0.000284	2.837824	0.480740	-0.000057
 612	6.0794e+01	7.8276	62.133538	0.000203	2.027017	0.343386	-0.000041
 613	6.0894e+01	7.8071	61.992238	0.000709	7.094560	1.201851	-0.000142
 614	6.0993e+01	7.7881	61.931681	0.000304	3.040526	0.515079	-0.000061
 615	6.1093e+01	7.7674	61.810567	0.000608	6.081051	1.030158	-0.000122
 616	6.1193e+01	7.7479	61.725787	0.000426	4.256736	0.721111	-0.000085
 617	6.1292e+01	7.7277	61.632933	0.000466	4.662139	0.789788	-0.000093
 618	6.1392e+01	7.7077	61.572376	0.000304	3.040526	0.515079	-0.000061
 619	6.1491e+01	7.6879	61.479522	0.000466	4.662139	0.789788	-0.000093
 620	6.1590e+01	7.6684	61.374556	0.000527	5.270245	0.892804	-0.000105
 621	6.1690e+01	7.6474	61.281702	0.000466	4.662139	0.789788	-0.000093
 622	6.1789e+01	7.6281	61.225182	0.000284	2.837824	0.480740	-0.000057
 623	6.1889e+01	7.6077	61.112142	0.000568	5.675648	0.961481	-0.000114
 624	6.1989e+01	7.5884	61.047548	0.000324	3.243227	0.549418	-0.000065
 625	6.2088e+01	7.5689	60.946620	0.000507	5.067543	0.858465	-0.000101
 626	6.2188e+01	7.5492	60.825506	0.000608	6.081051	1.030158	-0.000122
 627	6.2287e+01	7.5294	60.773023	0.000264	2.635122	0.446402	-0.000053
 628	6.2386e+01	7.5095	60.672094	0.000507	5.067543	0.858465	-0.000101
 629	6.2486e+01	7.4894	60.603463	0.000345	3.445929	0.583756	-0.000069
 630	6.2586e+01	7.4688	60.490423	0.000568	5.675648	0.961481	-0.000114
 631	6.2685e+01	7.4496	60.393532	0.000486	4.864841	0.824126	-0.000097
 632	6.2785e+01	7.4291	60.324901	0.000345	3.445929	0.583756	-0.000069
 633	6.2884e+01	7.4087	60.232047	0.000466	4.662139	0.789788	-0.000093
 634	6.2983e+01	7.3900	60.147267	0.000426	4.256736	0.721111	-0.000085
 635	6.3083e+01	7.3687	60.086710	0.000304	3.040526	0.515079	-0.000061
 636	6.3182e+01	7.3501	59.989818	0.000486	4.864841	0.824126	-0.000097
 637	6.3282e+01	7.3304	59.892927	0.000486	4.864841	0.824126	-0.000097
 638	6.3382e+01	7.3098	59.779887	0.000568	5.675648	0.961481	-0.000114
 639	6.3481e+01	7.2906	59.727405	0.000264	2.635122	0.446402	-0.000053
 640	6.3581e+01	7.2698	59.630513	0.000486	4.864841	0.824126	-0.000097
 641	6.3680e+01	7.2503	59.537659	0.000466	4.662139	0.789788	-0.000093
 642	6.3779e+01	7.2291	59.448842	0.000446	4.459438	0.755449	-0.000089
 643	6.3879e+01	7.2103	59.400397	0.000243	2.432421	0.412063	-0.000049
 644	6.3978e+01	7.1907	59.255060	0.000730	7.297262	1.236190	-0.000146
 645	6.4078e+01	7.1707	59.150094	0.000527	5.270245	0.892804	-0.000105
 646	6.4177e+01	7.1507	59.105686	0.000223	2.229719	0.377725	-0.000045
 647	6.4277e+01	7.1311	58.984572	0.000608	6.081051	1.030158	-0.000122
 648	6.4376e+01	7.1103	58.944200	0.000203	2.027017	0.343386	-0.000041
 649	6.4476e+01	7.0914	58.831161	0.000568	5.675648	0.961481	-0.000114
 650	6.4576e+01	7.0704	58.734269	0.000486	4.864841	0.824126	-0.000097
 651	6.4675e+01	7.0515	58.661601	0.000365	3.648631	0.618095	-0.000073
 652	6.4775e+01	7.0321	58.580858	0.000405	4.054034	0.686772	-0.000081
 653	6.4874e+01	7.0101	58.496078	0.000426	4.256736	0.721111	-0.000085
 654	6.4974e+01	6.9909	58.379001	0.000588	5.878350	0.995819	-0.000118
 655	6.5073e+01	6.9718	58.278073	0.000507	5.067543	0.858465	-0.000101
 656	6.5172e+01	6.9512	58.217516	0.000304	3.040526	0.515079	-0.000061
 657	6.5272e+01	6.9311	58.104476	0.000568	5.675648	0.961481	-0.000114
 658	6.5371e+01	6.9109	57.987399	0.000588	5.878350	0.995819	-0.000118
 659	6.5471e+01	6.8919	57.938954	0.000243	2.432421	0.412063	-0.000049
 660	6.5570e+01	6.8731	57.846099	0.000466	4.662139	0.789788	-0.000093
 661	6.5670e+01	6.8517	57.708837	0.000689	6.891858	1.167512	-0.000138
 662	6.5769e+01	6.8324	57.676540	0.000162	1.621614	0.274709	-0.000032
 663	6.5869e+01	6.8121	57.551389	0.000628	6.283753	1.064497	-0.000126
 664	6.5969e+01	6.7921	57.474683	0.000385	3.851333	0.652433	-0.000077
 665	6.6068e+01	6.7725	57.377792	0.000486	4.864841	0.824126	-0.000097
 666	6.6168e+01	6.7522	57.252640	0.000628	6.283753	1.064497	-0.000126
 667	6.6267e+01	6.7318	57.192083	0.000304	3.040526	0.515079	-0.000061
 668	6.6367e+01	6.7126	57.119415	0.000365	3.648631	0.618095	-0.000073
 669	6.6466e+01	6.6927	56.990227	0.000649	6.486455	1.098835	-0.000130
 670	6.6566e+01	6.6726	56.885261	0.000527	5.270245	0.892804	-0.000105
 671	6.6665e+01	6.6521	56.796444	0.000446	4.459438	0.755449	-0.000089
 672	6.6764e+01	6.6329	56.719739	0.000385	3.851333	0.652433	-0.000077
 673	6.6864e+01	6.6130	56.614773	0.000527	5.270245	0.892804	-0.000105
 674	6.6963e+01	6.5932	56.529993	0.000426	4.256736	0.721111	-0.000085
 675	6.7063e+01	6.5734	56.416953	0.000568	5.675648	0.961481	-0.000114
 676	6.7162e+01	6.5529	56.324099	0.000466	4.662139	0.789788	-0.000093
 677	6.7262e+01	6.5326	56.211059	0.000568	5.675648	0.961481	-0.000114
 678	6.7362e+01	6.5130	56.130317	0.000405	4.054034	0.686772	-0.000081
 679	6.7461e+01	6.4919	56.061685	0.000345	3.445929	0.583756	-0.000069
 680	6.7561e+01	6.4738	55.960757	0.000507	5.067543	0.858465	-0.000101
 681	6.7660e+01	6.4532	55.819457	0.000709	7.094560	1.201851	-0.000142
 682	6.7760e+01	6.4342	55.787160	0.000162	1.621614	0.274709	-0.000032
 683	6.7859e+01	6.4132	55.666046	0.000608	6.081051	1.030158	-0.000122
 684	6.7959e+01	6.3927	55.573192	0.000466	4.662139	0.789788	-0.000093
 685	6.8058e+01	6.3732	55.464189	0.000547	5.472946	0.927142	-0.000110
 686	6.8157e+01	6.3529	55.351150	0.000568	5.675648	0.961481	-0.000114
 687	6.8257e+01	6.3336	55.262333	0.000446	4.459438	0.755449	-0.000089
 688	6.8356e+01	6.3136	55.145256	0.000588	5.878350	0.995819	-0.000118
 689	6.8456e+01	6.2949	55.084699	0.000304	3.040526	0.515079	-0.000061
 690	6.8555e+01	6.2746	54.999919	0.000426	4.256736	0.721111	-0.000085
 691	6.8655e+01	6.2543	54.882842	0.000588	5.878350	0.995819	-0.000118
 692	6.8754e+01	6.2354	54.789988	0.000466	4.662139	0.789788	-0.000093
 693	6.8854e+01	6.2150	54.705208	0.000426	4.256736	0.721111	-0.000085
 694	6.8954e+01	6.1942	54.576019	0.000649	6.486455	1.098835	-0.000130
 695	6.9053e+01	6.1742	54.511425	0.000324	3.243227	0.549418	-0.000065
 696	6.9153e+01	6.1546	54.370126	0.000709	7.094560	1.201851	-0.000142
 697	6.9252e+01	6.1354	54.337828	0.000162	1.621614	0.274709	-0.000032
 698	6.9352e+01	6.1156	54.204603	0.000669	6.689157	1.133174	-0.000134
 699	6.9451e+01	6.0962	54.095600	0.000547	5.472946	0.927142	-0.000110
 700	6.9550e+01	6.0738	54.043118	0.000264	2.635122	0.446402	-0.000053
 701	6.9650e+01	6.0562	53.909892	0.000669	6.689157	1.133174	-0.000134
 702	6.9749e+01	6.0352	53.796852	0.000568	5.675648	0.961481	-0.000114
 703	6.9849e+01	6.0157	53.724184	0.000365	3.648631	0.618095	-0.000073
 704	6.9948e+01	5.9962	53.599033	0.000628	6.283753	1.064497	-0.000126
 705	7.0048e+01	5.9757	53.506179	0.000466	4.662139	0.789788	-0.000093
 706	7.0147e+01	5.9551	53.429473	0.000385	3.851333	0.652433	-0.000077
 707	7.0247e+01	5.9361	53.324507	0.000527	5.270245	0.892804	-0.000105
 708	7.0347e+01	5.9161	53.211468	0.000568	5.675648	0.961481	-0.000114
 709	7.0446e+01	5.8965	53.086316	0.000628	6.283753	1.064497	-0.000126
 710	7.0546e+01	5.8759	53.045945	0.000203	2.027017	0.343386	-0.000041
 711	7.0645e+01	5.8556	52.924831	0.000608	6.081051	1.030158	-0.000122
 712	7.0745e+01	5.8375	52.827940	0.000486	4.864841	0.824126	-0.000097
 713	7.0844e+01	5.8159	52.694714	0.000669	6.689157	1.133174	-0.000134
 714	7.0944e+01	5.7963	52.622046	0.000365	3.648631	0.618095	-0.000073
 715	7.1043e+01	5.7770	52.500932	0.000608	6.081051	1.030158	-0.000122
 716	7.1142e+01	5.7561	52.432300	0.000345	3.445929	0.583756	-0.000069
 717	7.1242e+01	5.7363	52.315223	0.000588	5.878350	0.995819	-0.000118
 718	7.1341e+01	5.7174	52.230444	0.000426	4.256736	0.721111	-0.000085
 719	7.1441e+01	5.6966	52.121441	0.000547	5.472946	0.927142	-0.000110
 720	7.1540e+01	5.6768	52.012438	0.000547	5.472946	0.927142	-0.000110
 721	7.1640e+01	5.6568	51.883250	0.000649	6.486455	1.098835	-0.000130
 722	7.1740e+01	5.6374	51.782322	0.000507	5.067543	0.858465	-0.000101
 723	7.1839e+01	5.6167	51.685430	0.000486	4.864841	0.824126	-0.000097
 724	7.1939e+01	5.5964	51.596613	0.000446	4.459438	0.755449	-0.000089
 725	7.2038e+01	5.5774	51.495685	0.000507	5.067543	0.858465	-0.000101
 726	7.2138e+01	5.5567	51.386682	0.000547	5.472946	0.927142	-0.000110
 727	7.2237e+01	5.5380	51.261531	0.000628	6.283753	1.064497	-0.000126
 728	7.2337e+01	5.5164	51.156566	0.000527	5.270245	0.892804	-0.000105
 729	7.2436e+01	5.4974	51.047563	0.000547	5.472946	0.927142	-0.000110
 730	7.2535e+01	5.4780	50.934523	0.000568	5.675648	0.961481	-0.000114
 731	7.2635e+01	5.4571	50.817446	0.000588	5.878350	0.995819	-0.000118
 732	7.2734e+01	5.4383	50.716518	0.000507	5.067543	0.858465	-0.000101
 733	7.2834e+01	5.4168	50.615589	0.000507	5.067543	0.858465	-0.000101
 734	7.2933e+01	5.3989	50.526772	0.000446	4.459438	0.755449	-0.000089
 735	7.3033e+01	5.3782	50.413733	0.000568	5.675648	0.961481	-0.000114
 736	7.3132e+01	5.3584	50.292618	0.000608	6.081051	1.030158	-0.000122
 737	7.3232e+01	5.3390	50.199764	0.000466	4.662139	0.789788	-0.000093
 738	7.3332e+01	5.3182	50.070576	0.000649	6.486455	1.098835	-0.000130
 739	7.3431e+01	5.2981	49.973685	0.000486	4.864841	0.824126	-0.000097
 740	7.3531e+01	5.2786	49.880831	0.000466	4.662139	0.789788	-0.000093
 741	7.3630e+01	5.2576	49.747605	0.000669	6.689157	1.133174	-0.000134
 742	7.3730e+01	5.2383	49.670900	0.000385	3.851333	0.652433	-0.000077
 743	7.3829e+01	5.2187	49.545748	0.000628	6.283753	1.064497	-0.000126
 744	7.3928e+01	5.1994	49.465006	0.000405	4.054034	0.686772	-0.000081
 745	7.4028e+01	5.1781	49.311594	0.000770	7.702665	1.304867	-0.000154
 746	7.4127e+01	5.1586	49.222777	0.000446	4.459438	0.755449	-0.000089
 747	7.4227e+01	5.1395	49.109738	0.000568	5.675648	0.961481	-0.000114
 748	7.4326e+01	5.1199	48.996698	0.000568	5.675648	0.961481	-0.000114
 749	7.4426e+01	5.0994	48.891732	0.000527	5.270245	0.892804	-0.000105
 750	7.4525e+01	5.0790	48.786767	0.000527	5.270245	0.892804	-0.000105
 751	7.4625e+01	5.0584	48.681801	0.000527	5.270245	0.892804	-0.000105
 752	7.4725e+01	5.0401	48.560687	0.000608	6.081051	1.030158	-0.000122
 753	7.4824e+01	5.0196	48.447647	0.000568	5.675648	0.961481	-0.000114
 754	7.4924e+01	4.9993	48.334608	0.000568	5.675648	0.961481	-0.000114
 755	7.5023e+01	4.9795	48.221568	0.000568	5.675648	0.961481	-0.000114
 756	7.5123e+01	4.9608	48.128714	0.000466	4.662139	0.789788	-0.000093
 757	7.5222e+01	4.9406	48.023748	0.000527	5.270245	0.892804	-0.000105
 758	7.5322e+01	4.9200	47.918783	0.000527	5.270245	0.892804	-0.000105
 759	7.5421e+01	4.9001	47.834003	0.000426	4.256736	0.721111	-0.000085
 760	7.5520e+01	4.8803	47.688666	0.000730	7.297262	1.236190	-0.000146
 761	7.5620e+01	4.8592	47.611960	0.000385	3.851333	0.652433	-0.000077
 762	7.5719e+01	4.8396	47.502958	0.000547	5.472946	0.927142	-0.000110
 763	7.5819e+01	4.8212	47.357621	0.000730	7.297262	1.236190	-0.000146
 764	7.5918e+01	4.8003	47.268804	0.000446	4.459438	0.755449	-0.000089
 765	7.6018e+01	4.7811	47.163838	0.000527	5.270245	0.892804	-0.000105
 766	7.6118e+01	4.7608	47.042724	0.000608	6.081051	1.030158	-0.000122
 767	7.6217e+01	4.7411	46.949870	0.000466	4.662139	0.789788	-0.000093
 768	7.6317e+01	4.7219	46.824719	0.000628	6.283753	1.064497	-0.000126
 769	7.6416e+01	4.7018	46.727828	0.000486	4.864841	0.824126	-0.000097
 770	7.6516e+01	4.6810	46.594602	0.000669	6.689157	1.133174	-0.000134
 771	7.6615e+01	4.6609	46.453302	0.000709	7.094560	1.201851	-0.000142
 772	7.6715e+01	4.6408	46.364485	0.000446	4.459438	0.755449	-0.000089
 773	7.6814e+01	4.6209	46.243371	0.000608	6.081051	1.030158	-0.000122
 774	7.6913e+01	4.6011	46.158591	0.000426	4.256736	0.721111	-0.000085
 775	7.7013e+01	4.5821	46.041515	0.000588	5.878350	0.995819	-0.000118
 776	7.7112e+01	4.5614	45.916363	0.000628	6.283753	1.064497	-0.000126
 777	7.7212e+01	4.5417	45.803324	0.000568	5.675648	0.961481	-0.000114
 778	7.7311e+01	4.5205	45.670098	0.000669	6.689157	1.133174	-0.000134
 779	7.7411e+01	4.5017	45.553021	0.000588	5.878350	0.995819	-0.000118
 780	7.7510e+01	4.4809	45.456130	0.000486	4.864841	0.824126	-0.000097
 781	7.7610e+01	4.4621	45.363276	0.000466	4.662139	0.789788	-0.000093
 782	7.7710e+01	4.4416	45.246199	0.000588	5.878350	0.995819	-0.000118
 783	7.7809e+01	4.4226	45.121048	0.000628	6.283753	1.064497	-0.000126
 784	7.7909e+01	4.4024	45.028193	0.000466	4.662139	0.789788	-0.000093
 785	7.8008e+01	4.3822	44.907079	0.000608	6.081051	1.030158	-0.000122
 786	7.8108e+01	4.3627	44.749631	0.000791	7.905367	1.339205	-0.000158
 787	7.8207e+01	4.3423	44.672926	0.000385	3.851333	0.652433	-0.000077
 788	7.8306e+01	4.3218	44.580071	0.000466	4.662139	0.789788	-0.000093
 789	7.8406e+01	4.3023	44.450883	0.000649	6.486455	1.098835	-0.000130
 790	7.8505e+01	4.2831	44.313620	0.000689	6.891858	1.167512	-0.000138
 791	7.8605e+01	4.2625	44.188469	0.000628	6.283753	1.064497	-0.000126
 792	7.8704e+01	4.2432	44.087541	0.000507	5.067543	0.858465	-0.000101
 793	7.8804e+01	4.2229	43.998724	0.000446	4.459438	0.755449	-0.000089
 794	7.8903e+01	4.2019	43.869535	0.000649	6.486455	1.098835	-0.000130
 795	7.9003e+01	4.1824	43.736310	0.000669	6.689157	1.133174	-0.000134
 796	7.9103e+01	4.1633	43.651530	0.000426	4.256736	0.721111	-0.000085
 797	7.9202e+01	4.1433	43.510230	0.000709	7.094560	1.201851	-0.000142
 798	7.9302e+01	4.1235	43.401228	0.000547	5.472946	0.927142	-0.000110
 799	7.9401e+01	4.1027	43.316448	0.000426	4.256736	0.721111	-0.000085
 800	7.9501e+01	4.0823	43.130740	0.000932	9.324279	1.579576	-0.000187
 801	7.9600e+01	4.0636	43.037886	0.000466	4.662139	0.789788	-0.000093
 802	7.9700e+01	4.0421	42.924846	0.000568	5.675648	0.961481	-0.000114
 803	7.9799e+01	4.0231	42.848140	0.000385	3.851333	0.652433	-0.000077
 804	7.9898e+01	4.0035	42.743175	0.000527	5.270245	0.892804	-0.000105
 805	7.9998e+01	3.9832	42.618023	0.000628	6.283753	1.064497	-0.000126
 806	8.0097e+01	3.9640	42.464612	0.000770	7.702665	1.304867	-0.000154
 807	8.0197e+01	3.9436	42.404055	0.000304	3.040526	0.515079	-0.000061
 808	8.0296e+01	3.9240	42.282941	0.000608	6.081051	1.030158	-0.000122
 809	8.0396e+01	3.9048	42.165864	0.000588	5.878350	0.995819	-0.000118
 810	8.0496e+01	3.8843	42.040713	0.000628	6.283753	1.064497	-0.000126
 811	8.0595e+01	3.8649	41.915562	0.000628	6.283753	1.064497	-0.000126
 812	8.0695e+01	3.8436	41.810596	0.000527	5.270245	0.892804	-0.000105
 813	8.0794e+01	3.8245	41.669297	0.000709	7.094560	1.201851	-0.000142
 814	8.0894e+01	3.8036	41.608739	0.000304	3.040526	0.515079	-0.000061
 815	8.0993e+01	3.7836	41.455328	0.000770	7.702665	1.304867	-0.000154
 816	8.1093e+01	3.7650	41.334214	0.000608	6.081051	1.030158	-0.000122
 817	8.1192e+01	3.7444	41.213100	0.000608	6.081051	1.030158	-0.000122
 818	8.1291e+01	3.7244	41.120246	0.000466	4.662139	0.789788	-0.000093
 819	8.1391e+01	3.7048	41.031429	0.000446	4.459438	0.755449	-0.000089
 820	8.1490e+01	3.6858	40.910315	0.000608	6.081051	1.030158	-0.000122
 821	8.1590e+01	3.6651	40.764978	0.000730	7.297262	1.236190	-0.000146
 822	8.1689e+01	3.6452	40.635790	0.000649	6.486455	1.098835	-0.000130
 823	8.1789e+01	3.6258	40.559084	0.000385	3.851333	0.652433	-0.000077
 824	8.1888e+01	3.6058	40.433933	0.000628	6.283753	1.064497	-0.000126
 825	8.1988e+01	3.5848	40.312819	0.000608	6.081051	1.030158	-0.000122
 826	8.2088e+01	3.5650	40.163445	0.000750	7.499964	1.270528	-0.000150
 827	8.2187e+01	3.5452	40.070591	0.000466	4.662139	0.789788	-0.000093
 828	8.2287e+01	3.5262	39.953514	0.000588	5.878350	0.995819	-0.000118
 829	8.2386e+01	3.5050	39.872771	0.000405	4.054034	0.686772	-0.000081
 830	8.2486e+01	3.4856	39.683026	0.000953	9.526981	1.613914	-0.000191
 831	8.2585e+01	3.4655	39.578060	0.000527	5.270245	0.892804	-0.000105
 832	8.2684e+01	3.4461	39.513466	0.000324	3.243227	0.549418	-0.000065
 833	8.2784e+01	3.4264	39.360055	0.000770	7.702665	1.304867	-0.000154
 834	8.2883e+01	3.4048	39.218755	0.000709	7.094560	1.201851	-0.000142
 835	8.2983e+01	3.3863	39.133975	0.000426	4.256736	0.721111	-0.000085
 836	8.3082e+01	3.3672	39.033047	0.000507	5.067543	0.858465	-0.000101
 837	8.3182e+01	3.3463	38.871561	0.000811	8.108069	1.373544	-0.000162
 838	8.3281e+01	3.3263	38.754485	0.000588	5.878350	0.995819	-0.000118
 839	8.3381e+01	3.3063	38.633370	0.000608	6.081051	1.030158	-0.000122
 840	8.3481e+01	3.2867	38.516294	0.000588	5.878350	0.995819	-0.000118
 841	8.3580e+01	3.2662	38.407291	0.000547	5.472946	0.927142	-0.000110
 842	8.3680e+01	3.2460	38.278103	0.000649	6.486455	1.098835	-0.000130
 843	8.3779e+01	3.2274	38.140840	0.000689	6.891858	1.167512	-0.000138
 844	8.3879e+01	3.2068	38.027800	0.000568	5.675648	0.961481	-0.000114
 845	8.3978e+01	3.1872	37.918797	0.000547	5.472946	0.927142	-0.000110
 846	8.4078e+01	3.1675	37.789609	0.000649	6.486455	1.098835	-0.000130
 847	8.4177e+01	3.1467	37.696755	0.000466	4.662139	0.789788	-0.000093
 848	8.4276e+01	3.1272	37.551418	0.000730	7.297262	1.236190	-0.000146
 849	8.4376e+01	3.1084	37.446453	0.000527	5.270245	0.892804	-0.000105
 850	8.4475e+01	3.0872	37.309190	0.000689	6.891858	1.167512	-0.000138
 851	8.4575e+01	3.0674	37.196150	0.000568	5.675648	0.961481	-0.000114
 852	8.4674e+01	3.0477	37.075036	0.000608	6.081051	1.030158	-0.000122
 853	8.4774e+01	3.0264	36.933736	0.000709	7.094560	1.201851	-0.000142
 854	8.4874e+01	3.0081	36.820696	0.000568	5.675648	0.961481	-0.000114
 855	8.4973e+01	2.9876	36.707657	0.000568	5.675648	0.961481	-0.000114
 856	8.5073e+01	2.9678	36.554246	0.000770	7.702665	1.304867	-0.000154
 857	8.5172e+01	2.9474	36.429094	0.000628	6.283753	1.064497	-0.000126
 858	8.5272e+01	2.9283	36.316055	0.000568	5.675648	0.961481	-0.000114
 859	8.5371e+01	2.9082	36.194940	0.000608	6.081051	1.030158	-0.000122
 860	8.5471e+01	2.8885	36.069789	0.000628	6.283753	1.064497	-0.000126
 861	8.5570e+01	2.8684	35.940601	0.000649	6.486455	1.098835	-0.000130
 862	8.5669e+01	2.8480	35.835635	0.000527	5.270245	0.892804	-0.000105
 863	8.5769e+01	2.8280	35.670113	0.000831	8.310770	1.407883	-0.000166
 864	8.5868e+01	2.8082	35.597444	0.000365	3.648631	0.618095	-0.000073
 865	8.5968e+01	2.7885	35.464219	0.000669	6.689157	1.133174	-0.000134
 866	8.6067e+01	2.7685	35.347142	0.000588	5.878350	0.995819	-0.000118
 867	8.6167e+01	2.7486	35.238139	0.000547	5.472946	0.927142	-0.000110
 868	8.6266e+01	2.7317	35.117025	0.000608	6.081051	1.030158	-0.000122
 869	8.6366e+01	2.7077	34.995911	0.000608	6.081051	1.030158	-0.000122
 870	8.6466e+01	2.6891	34.846537	0.000750	7.499964	1.270528	-0.000150
 871	8.6565e+01	2.6687	34.757720	0.000446	4.459438	0.755449	-0.000089
 872	8.6665e+01	2.6479	34.604309	0.000770	7.702665	1.304867	-0.000154
 873	8.6764e+01	2.6293	34.495306	0.000547	5.472946	0.927142	-0.000110
 874	8.6864e+01	2.6090	34.374192	0.000608	6.081051	1.030158	-0.000122
 875	8.6963e+01	2.5891	34.232892	0.000709	7.094560	1.201851	-0.000142
 876	8.7063e+01	2.5697	34.127927	0.000527	5.270245	0.892804	-0.000105
 877	8.7162e+01	2.5488	34.002776	0.000628	6.283753	1.064497	-0.000126
 878	8.7261e+01	2.5289	33.869550	0.000669	6.689157	1.133174	-0.000134
 879	8.7361e+01	2.5099	33.724213	0.000730	7.297262	1.236190	-0.000146
 880	8.7460e+01	2.4892	33.611174	0.000568	5.675648	0.961481	-0.000114
 881	8.7560e+01	2.4696	33.473911	0.000689	6.891858	1.167512	-0.000138
 882	8.7659e+01	2.4500	33.377020	0.000486	4.864841	0.824126	-0.000097
 883	8.7759e+01	2.4303	33.227646	0.000750	7.499964	1.270528	-0.000150
 884	8.7859e+01	2.4105	33.090383	0.000689	6.891858	1.167512	-0.000138
 885	8.7958e+01	2.3898	32.961195	0.000649	6.486455	1.098835	-0.000130
 886	8.8058e+01	2.3702	32.852192	0.000547	5.472946	0.927142	-0.000110
 887	8.8157e+01	2.3508	32.682632	0.000851	8.513472	1.442221	-0.000170
 888	8.8257e+01	2.3299	32.585741	0.000486	4.864841	0.824126	-0.000097
 889	8.8356e+01	2.3109	32.460590	0.000628	6.283753	1.064497	-0.000126
 890	8.8456e+01	2.2903	32.347550	0.000568	5.675648	0.961481	-0.000114
 891	8.8555e+01	2.2710	32.161842	0.000932	9.324279	1.579576	-0.000187
 892	8.8654e+01	2.2485	32.068988	0.000466	4.662139	0.789788	-0.000093
 893	8.8754e+01	2.2303	31.907502	0.000811	8.108069	1.373544	-0.000162
 894	8.8853e+01	2.2103	31.794463	0.000568	5.675648	0.961481	-0.000114
 895	8.8953e+01	2.1911	31.665274	0.000649	6.486455	1.098835	-0.000130
 896	8.9052e+01	2.1715	31.544160	0.000608	6.081051	1.030158	-0.000122
 897	8.9152e+01	2.1515	31.419009	0.000628	6.283753	1.064497	-0.000126
 898	8.9251e+01	2.1308	31.281746	0.000689	6.891858	1.167512	-0.000138
 899	8.9351e+01	2.1108	31.140447	0.000709	7.094560	1.201851	-0.000142
 900	8.9451e+01	2.0909	31.011258	0.000649	6.486455	1.098835	-0.000130
 901	8.9550e+01	2.0713	30.918404	0.000466	4.662139	0.789788	-0.000093
 902	8.9650e+01	2.0516	30.736733	0.000912	9.121577	1.545237	-0.000183
 903	8.9749e+01	2.0319	30.627730	0.000547	5.472946	0.927142	-0.000110
 904	8.9849e+01	2.0112	30.486431	0.000709	7.094560	1.201851	-0.000142
 905	8.9948e+01	1.9923	30.357242	0.000649	6.486455	1.098835	-0.000130
 906	9.0047e+01	1.9720	30.224017	0.000669	6.689157	1.133174	-0.000134
 907	9.0147e+01	1.9518	30.098865	0.000628	6.283753	1.064497	-0.000126
 908	9.0246e+01	1.9320	29.957566	0.000709	7.094560	1.201851	-0.000142
 909	9.0346e+01	1.9119	29.836452	0.000608	6.081051	1.030158	-0.000122
 910	9.0445e+01	1.8917	29.707263	0.000649	6.486455	1.098835	-0.000130
 911	9.0545e+01	1.8723	29.586149	0.000608	6.081051	1.030158	-0.000122
 912	9.0644e+01	1.8521	29.424664	0.000811	8.108069	1.373544	-0.000162
 913	9.0744e+01	1.8322	29.315661	0.000547	5.472946	0.927142	-0.000110
 914	9.0844e+01	1.8122	29.178399	0.000689	6.891858	1.167512	-0.000138
 915	9.0943e+01	1.7922	29.029025	0.000750	7.499964	1.270528	-0.000150
 916	9.1043e+01	1.7719	28.911948	0.000588	5.878350	0.995819	-0.000118
 917	9.1142e+01	1.7522	28.802945	0.000547	5.472946	0.927142	-0.000110
 918	9.1242e+01	1.7324	28.669719	0.000669	6.689157	1.133174	-0.000134
 919	9.1341e+01	1.7132	28.524383	0.000730	7.297262	1.236190	-0.000146
 920	9.1441e+01	1.6917	28.411343	0.000568	5.675648	0.961481	-0.000114
 921	9.1540e+01	1.6731	28.237746	0.000872	8.716174	1.476560	-0.000174
 922	9.1639e+01	1.6524	28.112595	0.000628	6.283753	1.064497	-0.000126
 923	9.1739e+01	1.6331	27.959184	0.000770	7.702665	1.304867	-0.000154
 924	9.1838e+01	1.6142	27.838069	0.000608	6.081051	1.030158	-0.000122
 925	9.1938e+01	1.5942	27.733104	0.000527	5.270245	0.892804	-0.000105
 926	9.2037e+01	1.5737	27.595841	0.000689	6.891858	1.167512	-0.000138
 927	9.2137e+01	1.5524	27.482802	0.000568	5.675648	0.961481	-0.000114
 928	9.2237e+01	1.5338	27.309205	0.000872	8.716174	1.476560	-0.000174
 929	9.2336e+01	1.5142	27.196165	0.000568	5.675648	0.961481	-0.000114
 930	9.2436e+01	1.4926	27.066977	0.000649	6.486455	1.098835	-0.000130
 931	9.2535e+01	1.4725	26.986234	0.000405	4.054034	0.686772	-0.000081
 932	9.2635e+01	1.4523	26.792451	0.000973	9.729682	1.648253	-0.000195
 933	9.2734e+01	1.4335	26.683449	0.000547	5.472946	0.927142	-0.000110
 934	9.2834e+01	1.4135	26.517926	0.000831	8.310770	1.407883	-0.000166
 935	9.2933e+01	1.3932	26.380663	0.000689	6.891858	1.167512	-0.000138
 936	9.3032e+01	1.3732	26.303958	0.000385	3.851333	0.652433	-0.000077
 937	9.3132e+01	1.3544	26.098064	0.001034	10.337788	1.751269	-0.000207
 938	9.3231e+01	1.3328	25.964838	0.000669	6.689157	1.133174	-0.000134
 939	9.3331e+01	1.3133	25.880059	0.000426	4.256736	0.721111	-0.000085
 940	9.3430e+01	1.2942	25.698388	0.000912	9.121577	1.545237	-0.000183
 941	9.3530e+01	1.2743	25.581311	0.000588	5.878350	0.995819	-0.000118
 942	9.3629e+01	1.2539	25.452122	0.000649	6.486455	1.098835	-0.000130
 943	9.3729e+01	1.2344	25.282563	0.000851	8.513472	1.442221	-0.000170
 944	9.3829e+01	1.2153	25.161448	0.000608	6.081051	1.030158	-0.000122
 945	9.3928e+01	1.1950	25.048409	0.000568	5.675648	0.961481	-0.000114
 946	9.4028e+01	1.1736	24.903072	0.000730	7.297262	1.236190	-0.000146
 947	9.4127e+01	1.1556	24.781958	0.000608	6.081051	1.030158	-0.000122
 948	9.4227e+01	1.1353	24.656807	0.000628	6.283753	1.064497	-0.000126
 949	9.4326e+01	1.1144	24.495321	0.000811	8.108069	1.373544	-0.000162
 950	9.4425e+01	1.0946	24.362096	0.000669	6.689157	1.133174	-0.000134
 951	9.4525e+01	1.0751	24.240982	0.000608	6.081051	1.030158	-0.000122
 952	9.4624e+01	1.0549	24.123905	0.000588	5.878350	0.995819	-0.000118
 953	9.4724e+01	1.0358	23.958382	0.000831	8.310770	1.407883	-0.000166
 954	9.4823e+01	1.0151	23.849379	0.000547	5.472946	0.927142	-0.000110
 955	9.4923e+01	0.9959	23.700005	0.000750	7.499964	1.270528	-0.000150
 956	9.5022e+01	0.9753	23.554668	0.000730	7.297262	1.236190	-0.000146
 957	9.5122e+01	0.9557	23.397220	0.000791	7.905367	1.339205	-0.000158
 958	9.5222e+01	0.9353	23.272069	0.000628	6.283753	1.064497	-0.000126
 959	9.5321e+01	0.9163	23.142881	0.000649	6.486455	1.098835	-0.000130
 960	9.5421e+01	0.8949	23.005618	0.000689	6.891858	1.167512	-0.000138
 961	9.5520e+01	0.8764	22.848170	0.000791	7.905367	1.339205	-0.000158
 962	9.5620e+01	0.8560	22.718981	0.000649	6.486455	1.098835	-0.000130
 963	9.5719e+01	0.8355	22.585756	0.000669	6.689157	1.133174	-0.000134
 964	9.5819e+01	0.8172	22.460605	0.000628	6.283753	1.064497	-0.000126
 965	9.5918e+01	0.7973	22.319305	0.000709	7.094560	1.201851	-0.000142
 966	9.6017e+01	0.7770	22.178005	0.000709	7.094560	1.201851	-0.000142
 967	9.6117e+01	0.7568	22.097262	0.000405	4.054034	0.686772	-0.000081
 968	9.6216e+01	0.7364	21.960000	0.000689	6.891858	1.167512	-0.000138
 969	9.6316e+01	0.7171	21.778329	0.000912	9.121577	1.545237	-0.000183
 970	9.6415e+01	0.6972	21.661252	0.000588	5.878350	0.995819	-0.000118
 971	9.6515e+01	0.6776	21.548212	0.000568	5.675648	0.961481	-0.000114
 972	9.6615e+01	0.6564	21.390764	0.000791	7.905367	1.339205	-0.000158
 973	9.6714e+01	0.6385	21.245427	0.000730	7.297262	1.236190	-0.000146
 974	9.6814e+01	0.6173	21.075867	0.000851	8.513472	1.442221	-0.000170
 975	9.6913e+01	0.5972	21.011273	0.000324	3.243227	0.549418	-0.000065
 976	9.7013e+01	0.5764	20.853825	0.000791	7.905367	1.339205	-0.000158
 977	9.7112e+01	0.5547	20.712525	0.000709	7.094560	1.201851	-0.000142
 978	9.7212e+01	0.5376	20.595448	0.000588	5.878350	0.995819	-0.000118
 979	9.7311e+01	0.5171	20.482408	0.000568	5.675648	0.961481	-0.000114
 980	9.7410e+01	0.4971	20.328997	0.000770	7.702665	1.304867	-0.000154
 981	9.7510e+01	0.4777	20.183660	0.000730	7.297262	1.236190	-0.000146
 982	9.7609e+01	0.4582	20.046398	0.000689	6.891858	1.167512	-0.000138
 983	9.7709e+01	0.4374	19.937395	0.000547	5.472946	0.927142	-0.000110
 984	9.7808e+01	0.4178	19.767835	0.000851	8.513472	1.442221	-0.000170
 985	9.7908e+01	0.3981	19.687092	0.000405	4.054034	0.686772	-0.000081
 986	9.8007e+01	0.3777	19.513496	0.000872	8.716174	1.476560	-0.000174
 987	9.8107e+01	0.3583	19.396419	0.000588	5.878350	0.995819	-0.000118
 988	9.8207e+01	0.3386	19.255119	0.000709	7.094560	1.201851	-0.000142
 989	9.8306e+01	0.3183	19.146116	0.000547	5.472946	0.927142	-0.000110
 990	9.8406e+01	0.2986	18.948297	0.000993	9.932384	1.682591	-0.000199
 991	9.8505e+01	0.2785	18.823145	0.000628	6.283753	1.064497	-0.000126
 992	9.8605e+01	0.2581	18.702031	0.000608	6.081051	1.030158	-0.000122
 993	9.8704e+01	0.2385	18.536509	0.000831	8.310770	1.407883	-0.000166
 994	9.8803e+01	0.2181	18.391172	0.000730	7.297262	1.236190	-0.000146
 995	9.8903e+01	0.1988	18.306392	0.000426	4.256736	0.721111	-0.000085
 996	9.9002e+01	0.1782	18.140869	0.000831	8.310770	1.407883	-0.000166
 997	9.9102e+01	0.1591	18.023793	0.000588	5.878350	0.995819	-0.000118
 998	9.9201e+01	0.1377	17.874418	0.000750	7.499964	1.270528	-0.000150
 999	9.9301e+01	0.1193	17.753304	0.000608	6.081051	1.030158	-0.000122
1000	9.9400e+01	0.0991	17.628153	0.000628	6.283753	1.064497	-0.000126
1001	9.9500e+01	0.0799	17.462631	0.000831	8.310770	1.407883	-0.000166
1002	9.9600e+01	0.0593	17.325368	0.000689	6.891858	1.167512	-0.000138
1003	9.9699e+01	0.0391	17.175994	0.000750	7.499964	1.270528	-0.000150
1004	9.9799e+01	0.0196	17.107363	0.000345	3.445929	0.583756	-0.000069
1005	9.9898e+01	0.0000	16.913580	0.000973	9.729682	1.648253	-0.000195
1006	9.9998e+01	-0.0191	16.796503	0.000588	5.878350	0.995819	-0.000118
1007	1.0010e+02	-0.0385	16.647129	0.000750	7.499964	1.270528	-0.000150
1008	1.0020e+02	-0.0589	16.558312	0.000446	4.459438	0.755449	-0.000089
1009	1.0030e+02	-0.0788	16.376641	0.000912	9.121577	1.545237	-0.000183
1010	1.0040e+02	-0.0987	16.235341	0.000709	7.094560	1.201851	-0.000142
1011	1.0050e+02	-0.1189	16.094042	0.000709	7.094560	1.201851	-0.000142
1012	1.0059e+02	-0.1391	15.952742	0.000709	7.094560	1.201851	-0.000142
1013	1.0069e+02	-0.1587	15.847776	0.000527	5.270245	0.892804	-0.000105
1014	1.0079e+02	-0.1782	15.718588	0.000649	6.486455	1.098835	-0.000130
1015	1.0089e+02	-0.1975	15.573251	0.000730	7.297262	1.236190	-0.000146
1016	1.0099e+02	-0.2184	15.411766	0.000811	8.108069	1.373544	-0.000162
1017	1.0109e+02	-0.2390	15.258355	0.000770	7.702665	1.304867	-0.000154
1018	1.0119e+02	-0.2583	15.133203	0.000628	6.283753	1.064497	-0.000126
1019	1.0129e+02	-0.2776	14.995941	0.000689	6.891858	1.167512	-0.000138
1020	1.0139e+02	-0.2979	14.842530	0.000770	7.702665	1.304867	-0.000154
1021	1.0149e+02	-0.3174	14.697193	0.000730	7.297262	1.236190	-0.000146
1022	1.0159e+02	-0.3384	14.584153	0.000568	5.675648	0.961481	-0.000114
1023	1.0169e+02	-0.3580	14.430742	0.000770	7.702665	1.304867	-0.000154
1024	1.0179e+02	-0.3772	14.305590	0.000628	6.283753	1.064497	-0.000126
1025	1.0189e+02	-0.3964	14.180439	0.000628	6.283753	1.064497	-0.000126
1026	1.0199e+02	-0.4172	14.047214	0.000669	6.689157	1.133174	-0.000134
1027	1.0209e+02	-0.4370	13.905914	0.000709	7.094560	1.201851	-0.000142
1028	1.0219e+02	-0.4574	13.752503	0.000770	7.702665	1.304867	-0.000154
1029	1.0229e+02	-0.4776	13.615240	0.000689	6.891858	1.167512	-0.000138
1030	1.0239e+02	-0.4974	13.449718	0.000831	8.310770	1.407883	-0.000166
1031	1.0248e+02	-0.5170	13.352826	0.000486	4.864841	0.824126	-0.000097
1032	1.0258e+02	-0.5370	13.159044	0.000973	9.729682	1.648253	-0.000195
1033	1.0268e+02	-0.5570	13.046004	0.000568	5.675648	0.961481	-0.000114
1034	1.0278e+02	-0.5762	12.928927	0.000588	5.878350	0.995819	-0.000118
1035	1.0288e+02	-0.5965	12.775516	0.000770	7.702665	1.304867	-0.000154
1036	1.0298e+02	-0.6169	12.678625	0.000486	4.864841	0.824126	-0.000097
1037	1.0308e+02	-0.6364	12.513102	0.000831	8.310770	1.407883	-0.000166
1038	1.0318e+02	-0.6562	12.363728	0.000750	7.499964	1.270528	-0.000150
1039	1.0328e+02	-0.6760	12.202243	0.000811	8.108069	1.373544	-0.000162
1040	1.0338e+02	-0.6964	12.081129	0.000608	6.081051	1.030158	-0.000122
1041	1.0348e+02	-0.7171	11.927718	0.000770	7.702665	1.304867	-0.000154
1042	1.0358e+02	-0.7367	11.838901	0.000446	4.459438	0.755449	-0.000089
1043	1.0368e+02	-0.7564	11.669341	0.000851	8.513472	1.442221	-0.000170
1044	1.0378e+02	-0.7764	11.524004	0.000730	7.297262	1.236190	-0.000146
1045	1.0388e+02	-0.7962	11.346370	0.000892	8.918876	1.510898	-0.000179
1046	1.0398e+02	-0.8163	11.253516	0.000466	4.662139	0.789788	-0.000093
1047	1.0408e+02	-0.8354	11.108179	0.000730	7.297262	1.236190	-0.000146
1048	1.0418e+02	-0.8565	10.942656	0.000831	8.310770	1.407883	-0.000166
1049	1.0428e+02	-0.8757	10.797320	0.000730	7.297262	1.236190	-0.000146
1050	1.0438e+02	-0.8957	10.728688	0.000345	3.445929	0.583756	-0.000069
1051	1.0447e+02	-0.9152	10.542980	0.000932	9.324279	1.579576	-0.000187
1052	1.0457e+02	-0.9356	10.405717	0.000689	6.891858	1.167512	-0.000138
1053	1.0467e+02	-0.9554	10.240195	0.000831	8.310770	1.407883	-0.000166
1054	1.0477e+02	-0.9758	10.123118	0.000588	5.878350	0.995819	-0.000118
1055	1.0487e+02	-0.9949	9.957595	0.000831	8.310770	1.407883	-0.000166
1056	1.0497e+02	-1.0148	9.804184	0.000770	7.702665	1.304867	-0.000154
1057	1.0507e+02	-1.0341	9.679033	0.000628	6.283753	1.064497	-0.000126
1058	1.0517e+02	-1.0561	9.553882	0.000628	6.283753	1.064497	-0.000126
1059	1.0527e+02	-1.0751	9.376248	0.000892	8.918876	1.510898	-0.000179
1060	1.0537e+02	-1.0945	9.243022	0.000669	6.689157	1.133174	-0.000134
1061	1.0547e+02	-1.1147	9.101723	0.000709	7.094560	1.201851	-0.000142
1062	1.0557e+02	-1.1347	8.996757	0.000527	5.270245	0.892804	-0.000105
1063	1.0567e+02	-1.1543	8.807012	0.000953	9.526981	1.613914	-0.000191
1064	1.0577e+02	-1.1742	8.677823	0.000649	6.486455	1.098835	-0.000130
1065	1.0587e+02	-1.1943	8.524412	0.000770	7.702665	1.304867	-0.000154
1066	1.0597e+02	-1.2144	8.375038	0.000750	7.499964	1.270528	-0.000150
1067	1.0607e+02	-1.2350	8.278147	0.000486	4.864841	0.824126	-0.000097
1068	1.0617e+02	-1.2539	8.088401	0.000953	9.526981	1.613914	-0.000191
1069	1.0627e+02	-1.2737	7.967287	0.000608	6.081051	1.030158	-0.000122
1070	1.0637e+02	-1.2946	7.805802	0.000811	8.108069	1.373544	-0.000162
1071	1.0647e+02	-1.3132	7.708911	0.000486	4.864841	0.824126	-0.000097
1072	1.0656e+02	-1.3341	7.515128	0.000973	9.729682	1.648253	-0.000195
1073	1.0666e+02	-1.3534	7.389977	0.000628	6.283753	1.064497	-0.000126
1074	1.0676e+02	-1.3739	7.252714	0.000689	6.891858	1.167512	-0.000138
1075	1.0686e+02	-1.3937	7.123526	0.000649	6.486455	1.098835	-0.000130
1076	1.0696e+02	-1.4132	6.953966	0.000851	8.513472	1.442221	-0.000170
1077	1.0706e+02	-1.4333	6.784407	0.000851	8.513472	1.442221	-0.000170
1078	1.0716e+02	-1.4539	6.675404	0.000547	5.472946	0.927142	-0.000110
1079	1.0726e+02	-1.4727	6.542178	0.000669	6.689157	1.133174	-0.000134
1080	1.0736e+02	-1.4935	6.372619	0.000851	8.513472	1.442221	-0.000170
1081	1.0746e+02	-1.5123	6.231319	0.000709	7.094560	1.201851	-0.000142
1082	1.0756e+02	-1.5341	6.090019	0.000709	7.094560	1.201851	-0.000142
1083	1.0766e+02	-1.5528	5.964868	0.000628	6.283753	1.064497	-0.000126
1084	1.0776e+02	-1.5729	5.791271	0.000872	8.716174	1.476560	-0.000174
1085	1.0786e+02	-1.5930	5.678231	0.000568	5.675648	0.961481	-0.000114
1086	1.0796e+02	-1.6122	5.577303	0.000507	5.067543	0.858465	-0.000101
1087	1.0806e+02	-1.6330	5.387558	0.000953	9.526981	1.613914	-0.000191
1088	1.0816e+02	-1.6525	5.270481	0.000588	5.878350	0.995819	-0.000118
1089	1.0826e+02	-1.6727	5.117070	0.000770	7.702665	1.304867	-0.000154
1090	1.0836e+02	-1.6920	4.963658	0.000770	7.702665	1.304867	-0.000154
1091	1.0845e+02	-1.7126	4.842544	0.000608	6.081051	1.030158	-0.000122
1092	1.0855e+02	-1.7325	4.668947	0.000872	8.716174	1.476560	-0.000174
1093	1.0865e+02	-1.7522	4.523611	0.000730	7.297262	1.236190	-0.000146
1094	1.0875e+02	-1.7721	4.358088	0.000831	8.310770	1.407883	-0.000166
1095	1.0885e+02	-1.7911	4.228900	0.000649	6.486455	1.098835	-0.000130
1096	1.0895e+02	-1.8125	4.103748	0.000628	6.283753	1.064497	-0.000126
1097	1.0905e+02	-1.8313	3.986672	0.000588	5.878350	0.995819	-0.000118
1098	1.0915e+02	-1.8521	3.792889	0.000973	9.729682	1.648253	-0.000195
1099	1.0925e+02	-1.8726	3.643515	0.000750	7.499964	1.270528	-0.000150
1100	1.0935e+02	-1.8932	3.530475	0.000568	5.675648	0.961481	-0.000114
1101	1.0945e+02	-1.9122	3.385138	0.000730	7.297262	1.236190	-0.000146
1102	1.0955e+02	-1.9316	3.276136	0.000547	5.472946	0.927142	-0.000110
1103	1.0965e+02	-1.9511	3.094465	0.000912	9.121577	1.545237	-0.000183
1104	1.0975e+02	-1.9715	2.961239	0.000669	6.689157	1.133174	-0.000134
1105	1.0985e+02	-1.9916	2.828014	0.000669	6.689157	1.133174	-0.000134
1106	1.0995e+02	-2.0115	2.719011	0.000547	5.472946	0.927142	-0.000110
1107	1.1005e+02	-2.0312	2.565600	0.000770	7.702665	1.304867	-0.000154
1108	1.1015e+02	-2.0505	2.383929	0.000912	9.121577	1.545237	-0.000183
1109	1.1025e+02	-2.0695	2.270889	0.000568	5.675648	0.961481	-0.000114
1110	1.1035e+02	-2.0910	2.129589	0.000709	7.094560	1.201851	-0.000142
1111	1.1044e+02	-2.1111	1.951955	0.000892	8.918876	1.510898	-0.000179
1112	1.1054e+02	-2.1306	1.806618	0.000730	7.297262	1.236190	-0.000146
1113	1.1064e+02	-2.1504	1.681467	0.000628	6.283753	1.064497	-0.000126
1114	1.1074e+02	-2.1709	1.572464	0.000547	5.472946	0.927142	-0.000110
1115	1.1084e+02	-2.1906	1.427127	0.000730	7.297262	1.236190	-0.000146
1116	1.1094e+02	-2.2111	1.277753	0.000750	7.499964	1.270528	-0.000150
1117	1.1104e+02	-2.2299	1.132417	0.000730	7.297262	1.236190	-0.000146
1118	1.1114e+02	-2.2504	0.946708	0.000932	9.324279	1.579576	-0.000187
1119	1.1124e+02	-2.2704	0.841743	0.000527	5.270245	0.892804	-0.000105
1120	1.1134e+02	-2.2903	0.668146	0.000872	8.716174	1.476560	-0.000174
1121	1.1144e+02	-2.3098	0.538958	0.000649	6.486455	1.098835	-0.000130
1122	1.1154e+02	-2.3307	0.425918	0.000568	5.675648	0.961481	-0.000114
1123	1.1164e+02	-2.3504	0.252321	0.000872	8.716174	1.476560	-0.000174
1124	1.1174e+02	-2.3708	0.102947	0.000750	7.499964	1.270528	-0.000150
1125	1.1184e+02	-2.3893	-0.010093	0.000568	5.675648	0.961481	-0.000114
1126	1.1194e+02	-2.4095	-0.171578	0.000811	8.108069	1.373544	-0.000162
1127	1.1204e+02	-2.4297	-0.312878	0.000709	7.094560	1.201851	-0.000142
1128	1.1214e+02	-2.4500	-0.450141	0.000689	6.891858	1.167512	-0.000138
1129	1.1224e+02	-2.4688	-0.587403	0.000689	6.891858	1.167512	-0.000138
1130	1.1234e+02	-2.4893	-0.736777	0.000750	7.499964	1.270528	-0.000150
1131	1.1244e+02	-2.5096	-0.853854	0.000588	5.878350	0.995819	-0.000118
1132	1.1253e+02	-2.5290	-1.007265	0.000770	7.702665	1.304867	-0.000154
1133	1.1263e+02	-2.5493	-1.140491	0.000669	6.689157	1.133174	-0.000134
1134	1.1273e+02	-2.5691	-1.289865	0.000750	7.499964	1.270528	-0.000150
1135	1.1283e+02	-2.5891	-1.427127	0.000689	6.891858	1.167512	-0.000138
1136	1.1293e+02	-2.6083	-1.572464	0.000730	7.297262	1.236190	-0.000146
1137	1.1303e+02	-2.6274	-1.697616	0.000628	6.283753	1.064497	-0.000126
1138	1.1313e+02	-2.6477	-1.826804	0.000649	6.486455	1.098835	-0.000130
1139	1.1323e+02	-2.6674	-1.988289	0.000811	8.108069	1.373544	-0.000162
1140	1.1333e+02	-2.6879	-2.097292	0.000547	5.472946	0.927142	-0.000110
1141	1.1343e+02	-2.7086	-2.270889	0.000872	8.716174	1.476560	-0.000174
1142	1.1353e+02	-2.7275	-2.396040	0.000628	6.283753	1.064497	-0.000126
1143	1.1363e+02	-2.7480	-2.517154	0.000608	6.081051	1.030158	-0.000122
1144	1.1373e+02	-2.7684	-2.650380	0.000669	6.689157	1.133174	-0.000134
1145	1.1383e+02	-2.7873	-2.791679	0.000709	7.094560	1.201851	-0.000142
1146	1.1393e+02	-2.8082	-2.965276	0.000872	8.716174	1.476560	-0.000174
1147	1.1403e+02	-2.8275	-3.046019	0.000405	4.054034	0.686772	-0.000081
1148	1.1413e+02	-2.8473	-3.187319	0.000709	7.094560	1.201851	-0.000142
1149	1.1423e+02	-2.8677	-3.377064	0.000953	9.526981	1.613914	-0.000191
1150	1.1433e+02	-2.8871	-3.469918	0.000466	4.662139	0.789788	-0.000093
1151	1.1442e+02	-2.9073	-3.607181	0.000689	6.891858	1.167512	-0.000138
1152	1.1452e+02	-2.9266	-3.760592	0.000770	7.702665	1.304867	-0.000154
1153	1.1462e+02	-2.9475	-3.881706	0.000608	6.081051	1.030158	-0.000122
1154	1.1472e+02	-2.9678	-4.027043	0.000730	7.297262	1.236190	-0.000146
1155	1.1482e+02	-2.9871	-4.184491	0.000791	7.905367	1.339205	-0.000158
1156	1.1492e+02	-3.0083	-4.285420	0.000507	5.067543	0.858465	-0.000101
1157	1.1502e+02	-3.0273	-4.434794	0.000750	7.499964	1.270528	-0.000150
1158	1.1512e+02	-3.0471	-4.531685	0.000486	4.864841	0.824126	-0.000097
1159	1.1522e+02	-3.0684	-4.693170	0.000811	8.108069	1.373544	-0.000162
1160	1.1532e+02	-3.0871	-4.830433	0.000689	6.891858	1.167512	-0.000138
1161	1.1542e+02	-3.1066	-4.951547	0.000608	6.081051	1.030158	-0.000122
1162	1.1552e+02	-3.1265	-5.092847	0.000709	7.094560	1.201851	-0.000142
1163	1.1562e+02	-3.1475	-5.226072	0.000669	6.689157	1.133174	-0.000134
1164	1.1572e+02	-3.1665	-5.375446	0.000750	7.499964	1.270528	-0.000150
1165	1.1582e+02	-3.1860	-5.512709	0.000689	6.891858	1.167512	-0.000138
1166	1.1592e+02	-3.2063	-5.649971	0.000689	6.891858	1.167512	-0.000138
1167	1.1602e+02	-3.2269	-5.811457	0.000811	8.108069	1.373544	-0.000162
1168	1.1612e+02	-3.2464	-5.944682	0.000669	6.689157	1.133174	-0.000134
1169	1.1622e+02	-3.2661	-6.049648	0.000527	5.270245	0.892804	-0.000105
1170	1.1632e+02	-3.2861	-6.194985	0.000730	7.297262	1.236190	-0.000146
1171	1.1642e+02	-3.3060	-6.324173	0.000649	6.486455	1.098835	-0.000130
1172	1.1651e+02	-3.3255	-6.469510	0.000730	7.297262	1.236190	-0.000146
1173	1.1661e+02	-3.3467	-6.626958	0.000791	7.905367	1.339205	-0.000158
1174	1.1671e+02	-3.3652	-6.731924	0.000527	5.270245	0.892804	-0.000105
1175	1.1681e+02	-3.3857	-6.873224	0.000709	7.094560	1.201851	-0.000142
1176	1.1691e+02	-3.4057	-7.026635	0.000770	7.702665	1.304867	-0.000154
1177	1.1701e+02	-3.4263	-7.135637	0.000547	5.472946	0.927142	-0.000110
1178	1.1711e+02	-3.4451	-7.309234	0.000872	8.716174	1.476560	-0.000174
1179	1.1721e+02	-3.4648	-7.422274	0.000568	5.675648	0.961481	-0.000114
1180	1.1731e+02	-3.4853	-7.539351	0.000588	5.878350	0.995819	-0.000118
1181	1.1741e+02	-3.5056	-7.696799	0.000791	7.905367	1.339205	-0.000158
1182	1.1751e+02	-3.5258	-7.850210	0.000770	7.702665	1.304867	-0.000154
1183	1.1761e+02	-3.5452	-7.987473	0.000689	6.891858	1.167512	-0.000138
1184	1.1771e+02	-3.5643	-8.108587	0.000608	6.081051	1.030158	-0.000122
1185	1.1781e+02	-3.5851	-8.237775	0.000649	6.486455	1.098835	-0.000130
1186	1.1791e+02	-3.6053	-8.350815	0.000568	5.675648	0.961481	-0.000114
1187	1.1801e+02	-3.6252	-8.524412	0.000872	8.716174	1.476560	-0.000174
1188	1.1811e+02	-3.6451	-8.649563	0.000628	6.283753	1.064497	-0.000126
1189	1.1821e+02	-3.6662	-8.770677	0.000608	6.081051	1.030158	-0.000122
1190	1.1831e+02	-3.6850	-8.903903	0.000669	6.689157	1.133174	-0.000134
1191	1.1841e+02	-3.7047	-9.037128	0.000669	6.689157	1.133174	-0.000134
1192	1.1850e+02	-3.7253	-9.182465	0.000730	7.297262	1.236190	-0.000146
1193	1.1860e+02	-3.7451	-9.319728	0.000689	6.891858	1.167512	-0.000138
1194	1.1870e+02	-3.7650	-9.428731	0.000547	5.472946	0.927142	-0.000110
1195	1.1880e+02	-3.7854	-9.561956	0.000669	6.689157	1.133174	-0.000134
1196	1.1890e+02	-3.8033	-9.695181	0.000669	6.689157	1.133174	-0.000134
1197	1.1900e+02	-3.8234	-9.832444	0.000689	6.891858	1.167512	-0.000138
1198	1.1910e+02	-3.8431	-9.977781	0.000730	7.297262	1.236190	-0.000146
1199	1.1920e+02	-3.8642	-10.082747	0.000527	5.270245	0.892804	-0.000105
1200	1.1930e+02	-3.8838	-10.252306	0.000851	8.513472	1.442221	-0.000170
1201	1.1940e+02	-3.9039	-10.365346	0.000568	5.675648	0.961481	-0.000114
1202	1.1950e+02	-3.9235	-10.506646	0.000709	7.094560	1.201851	-0.000142
1203	1.1960e+02	-3.9438	-10.615648	0.000547	5.472946	0.927142	-0.000110
1204	1.1970e+02	-3.9641	-10.748874	0.000669	6.689157	1.133174	-0.000134
1205	1.1980e+02	-3.9829	-10.902285	0.000770	7.702665	1.304867	-0.000154
1206	1.1990e+02	-4.0038	-11.007251	0.000527	5.270245	0.892804	-0.000105
1207	1.2000e+02	-4.0225	-11.132402	0.000628	6.283753	1.064497	-0.000126
1208	1.2010e+02	-4.0437	-11.285813	0.000770	7.702665	1.304867	-0.000154
1209	1.2020e+02	-4.0633	-11.406927	0.000608	6.081051	1.030158	-0.000122
1210	1.2030e+02	-4.0837	-11.564375	0.000791	7.905367	1.339205	-0.000158
1211	1.2039e+02	-4.1035	-11.669341	0.000527	5.270245	0.892804	-0.000105
1212	1.2049e+02	-4.1240	-11.766232	0.000486	4.864841	0.824126	-0.000097
1213	1.2059e+02	-4.1432	-11.951940	0.000932	9.324279	1.579576	-0.000187
1214	1.2069e+02	-4.1626	-12.089203	0.000689	6.891858	1.167512	-0.000138
1215	1.2079e+02	-4.1822	-12.206280	0.000588	5.878350	0.995819	-0.000118
1216	1.2089e+02	-4.2030	-12.339505	0.000669	6.689157	1.133174	-0.000134
1217	1.2099e+02	-4.2229	-12.460619	0.000608	6.081051	1.030158	-0.000122
1218	1.2109e+02	-4.2426	-12.581734	0.000608	6.081051	1.030158	-0.000122
1219	1.2119e+02	-4.2630	-12.747256	0.000831	8.310770	1.407883	-0.000166
1220	1.2129e+02	-4.2821	-12.860296	0.000568	5.675648	0.961481	-0.000114
1221	1.2139e+02	-4.3027	-12.981410	0.000608	6.081051	1.030158	-0.000122
1222	1.2149e+02	-4.3216	-13.134821	0.000770	7.702665	1.304867	-0.000154
1223	1.2159e+02	-4.3427	-13.276121	0.000709	7.094560	1.201851	-0.000142
1224	1.2169e+02	-4.3628	-13.401272	0.000628	6.283753	1.064497	-0.000126
1225	1.2179e+02	-4.3822	-13.538535	0.000689	6.891858	1.167512	-0.000138
1226	1.2189e+02	-4.4008	-13.675797	0.000689	6.891858	1.167512	-0.000138
1227	1.2199e+02	-4.4220	-13.853431	0.000892	8.918876	1.510898	-0.000179
1228	1.2209e+02	-4.4410	-13.962434	0.000547	5.472946	0.927142	-0.000110
1229	1.2219e+02	-4.4617	-14.111808	0.000750	7.499964	1.270528	-0.000150
1230	1.2229e+02	-4.4815	-14.200625	0.000446	4.459438	0.755449	-0.000089
1231	1.2239e+02	-4.5007	-14.329813	0.000649	6.486455	1.098835	-0.000130
1232	1.2248e+02	-4.5215	-14.471113	0.000709	7.094560	1.201851	-0.000142
1233	1.2258e+02	-4.5413	-14.612413	0.000709	7.094560	1.201851	-0.000142
1234	1.2268e+02	-4.5607	-14.741601	0.000649	6.486455	1.098835	-0.000130
1235	1.2278e+02	-4.5813	-14.899049	0.000791	7.905367	1.339205	-0.000158
1236	1.2288e+02	-4.6007	-15.004015	0.000527	5.270245	0.892804	-0.000105
1237	1.2298e+02	-4.6207	-15.157426	0.000770	7.702665	1.304867	-0.000154
1238	1.2308e+02	-4.6409	-15.294689	0.000689	6.891858	1.167512	-0.000138
1239	1.2318e+02	-4.6605	-15.355246	0.000304	3.040526	0.515079	-0.000061
1240	1.2328e+02	-4.6815	-15.516731	0.000811	8.108069	1.373544	-0.000162
1241	1.2338e+02	-4.7012	-15.649957	0.000669	6.689157	1.133174	-0.000134
1242	1.2348e+02	-4.7206	-15.795294	0.000730	7.297262	1.236190	-0.000146
1243	1.2358e+02	-4.7401	-15.912371	0.000588	5.878350	0.995819	-0.000118
1244	1.2368e+02	-4.7604	-16.081930	0.000851	8.513472	1.442221	-0.000170
1245	1.2378e+02	-4.7803	-16.182859	0.000507	5.067543	0.858465	-0.000101
1246	1.2388e+02	-4.8006	-16.352418	0.000851	8.513472	1.442221	-0.000170
1247	1.2398e+02	-4.8203	-16.429124	0.000385	3.851333	0.652433	-0.000077
1248	1.2408e+02	-4.8398	-16.538127	0.000547	5.472946	0.927142	-0.000110
1249	1.2418e+02	-4.8602	-16.731909	0.000973	9.729682	1.648253	-0.000195
1250	1.2428e+02	-4.8799	-16.840912	0.000547	5.472946	0.927142	-0.000110
1251	1.2438e+02	-4.9004	-16.970100	0.000649	6.486455	1.098835	-0.000130
1252	1.2447e+02	-4.9203	-17.103326	0.000669	6.689157	1.133174	-0.000134
1253	1.2457e+02	-4.9384	-17.228477	0.000628	6.283753	1.064497	-0.000126
1254	1.2467e+02	-4.9603	-17.357665	0.000649	6.486455	1.098835	-0.000130
1255	1.2477e+02	-4.9799	-17.478779	0.000608	6.081051	1.030158	-0.000122
1256	1.2487e+02	-4.9986	-17.616042	0.000689	6.891858	1.167512	-0.000138
1257	1.2497e+02	-5.0198	-17.761379	0.000730	7.297262	1.236190	-0.000146
1258	1.2507e+02	-5.0393	-17.898641	0.000689	6.891858	1.167512	-0.000138
1259	1.2517e+02	-5.0591	-17.975347	0.000385	3.851333	0.652433	-0.000077
1260	1.2527e+02	-5.0793	-18.112609	0.000689	6.891858	1.167512	-0.000138
1261	1.2537e+02	-5.0987	-18.290243	0.000892	8.918876	1.510898	-0.000179
1262	1.2547e+02	-5.1184	-18.370986	0.000405	4.054034	0.686772	-0.000081
1263	1.2557e+02	-5.1394	-18.536509	0.000831	8.310770	1.407883	-0.000166
1264	1.2567e+02	-5.1599	-18.617251	0.000405	4.054034	0.686772	-0.000081
1265	1.2577e+02	-5.1788	-18.790848	0.000872	8.716174	1.476560	-0.000174
1266	1.2587e+02	-5.1986	-18.891777	0.000507	5.067543	0.858465	-0.000101
1267	1.2597e+02	-5.2184	-19.037114	0.000730	7.297262	1.236190	-0.000146
1268	1.2607e+02	-5.2391	-19.134005	0.000486	4.864841	0.824126	-0.000097
1269	1.2617e+02	-5.2583	-19.327787	0.000973	9.729682	1.648253	-0.000195
1270	1.2627e+02	-5.2788	-19.424679	0.000486	4.864841	0.824126	-0.000097
1271	1.2636e+02	-5.2985	-19.565978	0.000709	7.094560	1.201851	-0.000142
1272	1.2646e+02	-5.3186	-19.691130	0.000628	6.283753	1.064497	-0.000126
1273	1.2656e+02	-5.3386	-19.812244	0.000608	6.081051	1.030158	-0.000122
1274	1.2666e+02	-5.3586	-19.989878	0.000892	8.918876	1.510898	-0.000179
1275	1.2676e+02	-5.3786	-20.062546	0.000365	3.648631	0.618095	-0.000073
1276	1.2686e+02	-5.3978	-20.215957	0.000770	7.702665	1.304867	-0.000154
1277	1.2696e+02	-5.4178	-20.308811	0.000466	4.662139	0.789788	-0.000093
1278	1.2706e+02	-5.4369	-20.454148	0.000730	7.297262	1.236190	-0.000146
1279	1.2716e+02	-5.4564	-20.563151	0.000547	5.472946	0.927142	-0.000110
1280	1.2726e+02	-5.4784	-20.740785	0.000892	8.918876	1.510898	-0.000179
1281	1.2736e+02	-5.4977	-20.874010	0.000669	6.689157	1.133174	-0.000134
1282	1.2746e+02	-5.5176	-20.991087	0.000588	5.878350	0.995819	-0.000118
1283	1.2756e+02	-5.5377	-21.152573	0.000811	8.108069	1.373544	-0.000162
1284	1.2766e+02	-5.5577	-21.305984	0.000770	7.702665	1.304867	-0.000154
1285	1.2776e+02	-5.5772	-21.410949	0.000527	5.270245	0.892804	-0.000105
1286	1.2786e+02	-5.5975	-21.544175	0.000669	6.689157	1.133174	-0.000134
1287	1.2796e+02	-5.6174	-21.697586	0.000770	7.702665	1.304867	-0.000154
1288	1.2806e+02	-5.6369	-21.786403	0.000446	4.459438	0.755449	-0.000089
1289	1.2816e+02	-5.6577	-21.964037	0.000892	8.918876	1.510898	-0.000179
1290	1.2826e+02	-5.6767	-22.064965	0.000507	5.067543	0.858465	-0.000101
1291	1.2835e+02	-5.6981	-22.222414	0.000791	7.905367	1.339205	-0.000158
1292	1.2845e+02	-5.7167	-22.331416	0.000547	5.472946	0.927142	-0.000110
1293	1.2855e+02	-5.7364	-22.464642	0.000669	6.689157	1.133174	-0.000134
1294	1.2865e+02	-5.7568	-22.630164	0.000831	8.310770	1.407883	-0.000166
1295	1.2875e+02	-5.7770	-22.739167	0.000547	5.472946	0.927142	-0.000110
1296	1.2885e+02	-5.7964	-22.880467	0.000709	7.094560	1.201851	-0.000142
1297	1.2895e+02	-5.8170	-23.017729	0.000689	6.891858	1.167512	-0.000138
1298	1.2905e+02	-5.8366	-23.122695	0.000527	5.270245	0.892804	-0.000105
1299	1.2915e+02	-5.8568	-23.272069	0.000750	7.499964	1.270528	-0.000150
1300	1.2925e+02	-5.8759	-23.385109	0.000568	5.675648	0.961481	-0.000114
1301	1.2935e+02	-5.8960	-23.534483	0.000750	7.499964	1.270528	-0.000150
1302	1.2945e+02	-5.9167	-23.671745	0.000689	6.891858	1.167512	-0.000138
1303	1.2955e+02	-5.9370	-23.837268	0.000831	8.310770	1.407883	-0.000166
1304	1.2965e+02	-5.9537	-23.954345	0.000588	5.878350	0.995819	-0.000118
1305	1.2975e+02	-5.9753	-24.059310	0.000527	5.270245	0.892804	-0.000105
1306	1.2985e+02	-5.9969	-24.216759	0.000791	7.905367	1.339205	-0.000158
1307	1.2995e+02	-6.0149	-24.354021	0.000689	6.891858	1.167512	-0.000138
1308	1.3005e+02	-6.0349	-24.467061	0.000568	5.675648	0.961481	-0.000114
1309	1.3015e+02	-6.0558	-24.576064	0.000547	5.472946	0.927142	-0.000110
1310	1.3025e+02	-6.0757	-24.697178	0.000608	6.081051	1.030158	-0.000122
1311	1.3034e+02	-6.0963	-24.870775	0.000872	8.716174	1.476560	-0.000174
1312	1.3044e+02	-6.1151	-24.963629	0.000466	4.662139	0.789788	-0.000093
1313	1.3054e+02	-6.1349	-25.133189	0.000851	8.513472	1.442221	-0.000170
1314	1.3064e+02	-6.1554	-25.254303	0.000608	6.081051	1.030158	-0.000122
1315	1.3074e+02	-6.1749	-25.415788	0.000811	8.108069	1.373544	-0.000162
1316	1.3084e+02	-6.1951	-25.536902	0.000608	6.081051	1.030158	-0.000122
1317	1.3094e+02	-6.2143	-25.674165	0.000689	6.891858	1.167512	-0.000138
1318	1.3104e+02	-6.2363	-25.823539	0.000750	7.499964	1.270528	-0.000150
1319	1.3114e+02	-6.2552	-25.916393	0.000466	4.662139	0.789788	-0.000093
1320	1.3124e+02	-6.2744	-26.089990	0.000872	8.716174	1.476560	-0.000174
1321	1.3134e+02	-6.2943	-26.219178	0.000649	6.486455	1.098835	-0.000130
1322	1.3144e+02	-6.3154	-26.332218	0.000568	5.675648	0.961481	-0.000114
1323	1.3154e+02	-6.3348	-26.493703	0.000811	8.108069	1.373544	-0.000162
1324	1.3164e+02	-6.3547	-26.602706	0.000547	5.472946	0.927142	-0.000110
1325	1.3174e+02	-6.3747	-26.735931	0.000669	6.689157	1.133174	-0.000134
1326	1.3184e+02	-6.3940	-26.925677	0.000953	9.526981	1.613914	-0.000191
1327	1.3194e+02	-6.4140	-27.050828	0.000628	6.283753	1.064497	-0.000126
1328	1.3204e+02	-6.4336	-27.188091	0.000689	6.891858	1.167512	-0.000138
1329	1.3214e+02	-6.4537	-27.305168	0.000588	5.878350	0.995819	-0.000118
1330	1.3224e+02	-6.4742	-27.502987	0.000993	9.932384	1.682591	-0.000199
1331	1.3234e+02	-6.4931	-27.607953	0.000527	5.270245	0.892804	-0.000105
1332	1.3243e+02	-6.5140	-27.753290	0.000730	7.297262	1.236190	-0.000146
1333	1.3253e+02	-6.5340	-27.878441	0.000628	6.283753	1.064497	-0.000126
1334	1.3263e+02	-6.5530	-28.064149	0.000932	9.324279	1.579576	-0.000187
1335	1.3273e+02	-6.5729	-28.144892	0.000405	4.054034	0.686772	-0.000081
1336	1.3283e+02	-6.5933	-28.326563	0.000912	9.121577	1.545237	-0.000183
1337	1.3293e+02	-6.6132	-28.459788	0.000669	6.689157	1.133174	-0.000134
1338	1.3303e+02	-6.6325	-28.588977	0.000649	6.486455	1.098835	-0.000130
1339	1.3313e+02	-6.6519	-28.734314	0.000730	7.297262	1.236190	-0.000146
1340	1.3323e+02	-6.6733	-28.871576	0.000689	6.891858	1.167512	-0.000138
1341	1.3333e+02	-6.6927	-29.016913	0.000730	7.297262	1.236190	-0.000146
1342	1.3343e+02	-6.7123	-29.202621	0.000932	9.324279	1.579576	-0.000187
1343	1.3353e+02	-6.7334	-29.323735	0.000608	6.081051	1.030158	-0.000122
1344	1.3363e+02	-6.7514	-29.460998	0.000689	6.891858	1.167512	-0.000138
1345	1.3373e+02	-6.7735	-29.630558	0.000851	8.513472	1.442221	-0.000170
1346	1.3383e+02	-6.7929	-29.763783	0.000669	6.689157	1.133174	-0.000134
1347	1.3393e+02	-6.8121	-29.921232	0.000791	7.905367	1.339205	-0.000158
1348	1.3403e+02	-6.8323	-30.078680	0.000791	7.905367	1.339205	-0.000158
1349	1.3413e+02	-6.8533	-30.228054	0.000750	7.499964	1.270528	-0.000150
1350	1.3423e+02	-6.8724	-30.389539	0.000811	8.108069	1.373544	-0.000162
1351	1.3432e+02	-6.8912	-30.567173	0.000892	8.918876	1.510898	-0.000179
1352	1.3442e+02	-6.9122	-30.684250	0.000588	5.878350	0.995819	-0.000118
1353	1.3452e+02	-6.9318	-30.809401	0.000628	6.283753	1.064497	-0.000126
1354	1.3462e+02	-6.9519	-30.974924	0.000831	8.310770	1.407883	-0.000166
1355	1.3472e+02	-6.9731	-31.124298	0.000750	7.499964	1.270528	-0.000150
1356	1.3482e+02	-6.9919	-31.305969	0.000912	9.121577	1.545237	-0.000183
1357	1.3492e+02	-7.0104	-31.410935	0.000527	5.270245	0.892804	-0.000105
1358	1.3502e+02	-7.0316	-31.604717	0.000973	9.729682	1.648253	-0.000195
1359	1.3512e+02	-7.0514	-31.729868	0.000628	6.283753	1.064497	-0.000126
1360	1.3522e+02	-7.0712	-31.891354	0.000811	8.108069	1.373544	-0.000162
1361	1.3532e+02	-7.0911	-32.056876	0.000831	8.310770	1.407883	-0.000166
1362	1.3542e+02	-7.1124	-32.210287	0.000770	7.702665	1.304867	-0.000154
1363	1.3552e+02	-7.1313	-32.347550	0.000689	6.891858	1.167512	-0.000138
1364	1.3562e+02	-7.1517	-32.537295	0.000953	9.526981	1.613914	-0.000191
1365	1.3572e+02	-7.1709	-32.694744	0.000791	7.905367	1.339205	-0.000158
1366	1.3582e+02	-7.1918	-32.823932	0.000649	6.486455	1.098835	-0.000130
1367	1.3592e+02	-7.2118	-33.009640	0.000932	9.324279	1.579576	-0.000187
1368	1.3602e+02	-7.2309	-33.142866	0.000669	6.689157	1.133174	-0.000134
1369	1.3612e+02	-7.2512	-33.356834	0.001074	10.743191	1.819946	-0.000215
1370	1.3622e+02	-7.2720	-33.469874	0.000568	5.675648	0.961481	-0.000114
1371	1.3631e+02	-7.2913	-33.643471	0.000872	8.716174	1.476560	-0.000174
1372	1.3641e+02	-7.3113	-33.772659	0.000649	6.486455	1.098835	-0.000130
1373	1.3651e+02	-7.3302	-33.982590	0.001054	10.540489	1.785607	-0.000211
1374	1.3661e+02	-7.3508	-34.140038	0.000791	7.905367	1.339205	-0.000158
1375	1.3671e+02	-7.3697	-34.269227	0.000649	6.486455	1.098835	-0.000130
1376	1.3681e+02	-7.3903	-34.434749	0.000831	8.310770	1.407883	-0.000166
1377	1.3691e+02	-7.4106	-34.624495	0.000953	9.526981	1.613914	-0.000191
1378	1.3701e+02	-7.4309	-34.785980	0.000811	8.108069	1.373544	-0.000162
1379	1.3711e+02	-7.4510	-34.931317	0.000730	7.297262	1.236190	-0.000146
1380	1.3721e+02	-7.4695	-35.108951	0.000892	8.918876	1.510898	-0.000179
1381	1.3731e+02	-7.4907	-35.242176	0.000669	6.689157	1.133174	-0.000134
1382	1.3741e+02	-7.5099	-35.448070	0.001034	10.337788	1.751269	-0.000207
1383	1.3751e+02	-7.5308	-35.621667	0.000872	8.716174	1.476560	-0.000174
1384	1.3761e+02	-7.5496	-35.787190	0.000831	8.310770	1.407883	-0.000166
1385	1.3771e+02	-7.5690	-35.976935	0.000953	9.526981	1.613914	-0.000191
1386	1.3781e+02	-7.5883	-36.134383	0.000791	7.905367	1.339205	-0.000158
1387	1.3791e+02	-7.6091	-36.307980	0.000872	8.716174	1.476560	-0.000174
1388	1.3801e+02	-7.6286	-36.509837	0.001014	10.135086	1.716930	-0.000203
1389	1.3811e+02	-7.6486	-36.626914	0.000588	5.878350	0.995819	-0.000118
1390	1.3821e+02	-7.6695	-36.852994	0.001135	11.351296	1.922962	-0.000227
1391	1.3831e+02	-7.6880	-37.006405	0.000770	7.702665	1.304867	-0.000154
1392	1.3840e+02	-7.7090	-37.175964	0.000851	8.513472	1.442221	-0.000170
1393	1.3850e+02	-7.7280	-37.402044	0.001135	11.351296	1.922962	-0.000227
1394	1.3860e+02	-7.7480	-37.563529	0.000811	8.108069	1.373544	-0.000162
1395	1.3870e+02	-7.7686	-37.773461	0.001054	10.540489	1.785607	-0.000211
1396	1.3880e+02	-7.7885	-37.914760	0.000709	7.094560	1.201851	-0.000142
1397	1.3890e+02	-7.8085	-38.108543	0.000973	9.729682	1.648253	-0.000195
1398	1.3900e+02	-7.8278	-38.318474	0.001054	10.540489	1.785607	-0.000211
1399	1.3910e+02	-7.8470	-38.455736	0.000689	6.891858	1.167512	-0.000138
1400	1.3920e+02	-7.8683	-38.669705	0.001074	10.743191	1.819946	-0.000215
1401	1.3930e+02	-7.8877	-38.855413	0.000932	9.324279	1.579576	-0.000187
1402	1.3940e+02	-7.9077	-39.069381	0.001074	10.743191	1.819946	-0.000215
1403	1.3950e+02	-7.9260	-39.206644	0.000689	6.891858	1.167512	-0.000138
1404	1.3960e+02	-7.9473	-39.432723	0.001135	11.351296	1.922962	-0.000227
1405	1.3970e+02	-7.9675	-39.614394	0.000912	9.121577	1.545237	-0.000183
1406	1.3980e+02	-7.9874	-39.840474	0.001135	11.351296	1.922962	-0.000227
1407	1.3990e+02	-8.0066	-40.014071	0.000872	8.716174	1.476560	-0.000174
1408	1.4000e+02	-8.0270	-40.211891	0.000993	9.932384	1.682591	-0.000199
1409	1.4010e+02	-8.0477	-40.421822	0.001054	10.540489	1.785607	-0.000211
1410	1.4020e+02	-8.0664	-40.599456	0.000892	8.918876	1.510898	-0.000179
1411	1.4029e+02	-8.0871	-40.805349	0.001034	10.337788	1.751269	-0.000207
1412	1.4039e+02	-8.1068	-40.982983	0.000892	8.918876	1.510898	-0.000179
1413	1.4049e+02	-8.1271	-41.205026	0.001115	11.148594	1.888623	-0.000223
1414	1.4059e+02	-8.1476	-41.406883	0.001014	10.135086	1.716930	-0.000203
1415	1.4069e+02	-8.1665	-41.572405	0.000831	8.310770	1.407883	-0.000166
1416	1.4079e+02	-8.1870	-41.842893	0.001358	13.581015	2.300686	-0.000272
1417	1.4089e+02	-8.2061	-42.000342	0.000791	7.905367	1.339205	-0.000158
1418	1.4099e+02	-8.2263	-42.165864	0.000831	8.310770	1.407883	-0.000166
1419	1.4109e+02	-8.2470	-42.412129	0.001236	12.364805	2.094655	-0.000248
1420	1.4119e+02	-8.2663	-42.593801	0.000912	9.121577	1.545237	-0.000183
1421	1.4129e+02	-8.2863	-42.783546	0.000953	9.526981	1.613914	-0.000191
1422	1.4139e+02	-8.3067	-43.009626	0.001135	11.351296	1.922962	-0.000227
1423	1.4149e+02	-8.3263	-43.255891	0.001236	12.364805	2.094655	-0.000248
1424	1.4159e+02	-8.3461	-43.494082	0.001196	11.959401	2.025977	-0.000239
1425	1.4169e+02	-8.3659	-43.659604	0.000831	8.310770	1.407883	-0.000166
1426	1.4179e+02	-8.3867	-43.885684	0.001135	11.351296	1.922962	-0.000227
1427	1.4189e+02	-8.4054	-44.095615	0.001054	10.540489	1.785607	-0.000211
1428	1.4199e+02	-8.4265	-44.337843	0.001216	12.162103	2.060316	-0.000243
1429	1.4209e+02	-8.4451	-44.531626	0.000973	9.729682	1.648253	-0.000195
1430	1.4219e+02	-8.4656	-44.761742	0.001155	11.553998	1.957300	-0.000231
1431	1.4228e+02	-8.4853	-44.983785	0.001115	11.148594	1.888623	-0.000223
1432	1.4238e+02	-8.5051	-45.145270	0.000811	8.108069	1.373544	-0.000162
1433	1.4248e+02	-8.5249	-45.423833	0.001399	13.986418	2.369363	-0.000280
1434	1.4258e+02	-8.5448	-45.609541	0.000932	9.324279	1.579576	-0.000187
1435	1.4268e+02	-8.5654	-45.904252	0.001480	14.797225	2.506718	-0.000296
1436	1.4278e+02	-8.5849	-46.098034	0.000973	9.729682	1.648253	-0.000195
1437	1.4288e+02	-8.6052	-46.295854	0.000993	9.932384	1.682591	-0.000199
1438	1.4298e+02	-8.6247	-46.542119	0.001236	12.364805	2.094655	-0.000248
1439	1.4308e+02	-8.6441	-46.776273	0.001176	11.756700	1.991639	-0.000235
1440	1.4318e+02	-8.6646	-46.998316	0.001115	11.148594	1.888623	-0.000223
1441	1.4328e+02	-8.6860	-47.228432	0.001155	11.553998	1.957300	-0.000231
1442	1.4338e+02	-8.7045	-47.490846	0.001318	13.175612	2.232009	-0.000264
1443	1.4348e+02	-8.7251	-47.680592	0.000953	9.526981	1.613914	-0.000191
1444	1.4358e+02	-8.7446	-47.967228	0.001439	14.391822	2.438041	-0.000288
1445	1.4368e+02	-8.7643	-48.233679	0.001338	13.378313	2.266348	-0.000268
1446	1.4378e+02	-8.7841	-48.451685	0.001095	10.945893	1.854284	-0.000219
1447	1.4388e+02	-8.8046	-48.677764	0.001135	11.351296	1.922962	-0.000227
1448	1.4398e+02	-8.8245	-48.919992	0.001216	12.162103	2.060316	-0.000243
1449	1.4408e+02	-8.8432	-49.166258	0.001236	12.364805	2.094655	-0.000248
1450	1.4418e+02	-8.8647	-49.420597	0.001277	12.770208	2.163332	-0.000256
1451	1.4428e+02	-8.8839	-49.670900	0.001257	12.567506	2.128993	-0.000252
1452	1.4437e+02	-8.9046	-49.953499	0.001419	14.189120	2.403702	-0.000284
1453	1.4447e+02	-8.9247	-50.179579	0.001135	11.351296	1.922962	-0.000227
1454	1.4457e+02	-8.9433	-50.421807	0.001216	12.162103	2.060316	-0.000243
1455	1.4467e+02	-8.9636	-50.708443	0.001439	14.391822	2.438041	-0.000288
1456	1.4477e+02	-8.9827	-50.934523	0.001135	11.351296	1.922962	-0.000227
1457	1.4487e+02	-9.0028	-51.257494	0.001622	16.216137	2.747088	-0.000325
1458	1.4497e+02	-9.0237	-51.471462	0.001074	10.743191	1.819946	-0.000215
1459	1.4507e+02	-9.0439	-51.754062	0.001419	14.189120	2.403702	-0.000284
1460	1.4517e+02	-9.0636	-52.036661	0.001419	14.189120	2.403702	-0.000284
1461	1.4527e+02	-9.0825	-52.291001	0.001277	12.770208	2.163332	-0.000256
1462	1.4537e+02	-9.1022	-52.549377	0.001297	12.972910	2.197670	-0.000260
1463	1.4547e+02	-9.1217	-52.799680	0.001257	12.567506	2.128993	-0.000252
1464	1.4557e+02	-9.1420	-53.102465	0.001520	15.202629	2.575395	-0.000304
1465	1.4567e+02	-9.1620	-53.389102	0.001439	14.391822	2.438041	-0.000288
1466	1.4577e+02	-9.1824	-53.635367	0.001236	12.364805	2.094655	-0.000248
1467	1.4587e+02	-9.2028	-53.962375	0.001642	16.418839	2.781427	-0.000329
1468	1.4597e+02	-9.2224	-54.224789	0.001318	13.175612	2.232009	-0.000264
1469	1.4607e+02	-9.2413	-54.458943	0.001176	11.756700	1.991639	-0.000235
1470	1.4617e+02	-9.2622	-54.769802	0.001561	15.608032	2.644072	-0.000312
1471	1.4626e+02	-9.2833	-55.088736	0.001601	16.013436	2.712749	-0.000321
1472	1.4636e+02	-9.3021	-55.322890	0.001176	11.756700	1.991639	-0.000235
1473	1.4646e+02	-9.3224	-55.641823	0.001601	16.013436	2.712749	-0.000321
1474	1.4656e+02	-9.3413	-55.936534	0.001480	14.797225	2.506718	-0.000296
1475	1.4666e+02	-9.3625	-56.231245	0.001480	14.797225	2.506718	-0.000296
1476	1.4676e+02	-9.3819	-56.489622	0.001297	12.972910	2.197670	-0.000260
1477	1.4686e+02	-9.4017	-56.840853	0.001764	17.635049	2.987458	-0.000353
1478	1.4696e+02	-9.4214	-57.099229	0.001297	12.972910	2.197670	-0.000260
1479	1.4706e+02	-9.4413	-57.406052	0.001541	15.405330	2.609734	-0.000308
1480	1.4716e+02	-9.4617	-57.753245	0.001743	17.432348	2.953120	-0.000349
1481	1.4726e+02	-9.4819	-58.051993	0.001500	14.999927	2.541056	-0.000300
1482	1.4736e+02	-9.5010	-58.354779	0.001520	15.202629	2.575395	-0.000304
1483	1.4746e+02	-9.5218	-58.677749	0.001622	16.216137	2.747088	-0.000325
1484	1.4756e+02	-9.5412	-59.004757	0.001642	16.418839	2.781427	-0.000329
1485	1.4766e+02	-9.5609	-59.327728	0.001622	16.216137	2.747088	-0.000325
1486	1.4776e+02	-9.5811	-59.650699	0.001622	16.216137	2.747088	-0.000325
1487	1.4786e+02	-9.6004	-59.941373	0.001459	14.594524	2.472379	-0.000292
1488	1.4796e+02	-9.6212	-60.268381	0.001642	16.418839	2.781427	-0.000329
1489	1.4806e+02	-9.6405	-60.579240	0.001561	15.608032	2.644072	-0.000312
1490	1.4816e+02	-9.6596	-60.930471	0.001764	17.635049	2.987458	-0.000353
1491	1.4825e+02	-9.6807	-61.273628	0.001723	17.229646	2.918781	-0.000345
1492	1.4835e+02	-9.7002	-61.592561	0.001601	16.013436	2.712749	-0.000321
1493	1.4845e+02	-9.7197	-61.907458	0.001581	15.810734	2.678411	-0.000316
1494	1.4855e+02	-9.7407	-62.242540	0.001682	16.824242	2.850104	-0.000337
1495	1.4865e+02	-9.7607	-62.577623	0.001682	16.824242	2.850104	-0.000337
1496	1.4875e+02	-9.7798	-62.908668	0.001662	16.621541	2.815765	-0.000333
1497	1.4885e+02	-9.8000	-63.288158	0.001905	19.053961	3.227828	-0.000381
1498	1.4895e+02	-9.8203	-63.647463	0.001804	18.040453	3.056135	-0.000361
1499	1.4905e+02	-9.8395	-64.030991	0.001926	19.256663	3.262167	-0.000385
1500	1.4915e+02	-9.8594	-64.337814	0.001541	15.405330	2.609734	-0.000308
1501	1.4925e+02	-9.8795	-64.713267	0.001885	18.851260	3.193490	-0.000377
1502	1.4935e+02	-9.8997	-65.100832	0.001946	19.459365	3.296506	-0.000390
1503	1.4945e+02	-9.9200	-65.452063	0.001764	17.635049	2.987458	-0.000353
1504	1.4955e+02	-9.9387	-65.823480	0.001865	18.648558	3.159151	-0.000373
1505	1.4965e+02	-9.9604	-66.174710	0.001764	17.635049	2.987458	-0.000353
1506	1.4975e+02	-9.9791	-66.594573	0.002108	21.080979	3.571214	-0.000422
1507	1.4985e+02	-9.9995	-66.970026	0.001885	18.851260	3.193490	-0.000377
1508	1.4995e+02	-9.9793	-67.175920	-0.001034	-10.337788	-1.751269	-0.000207
1509	1.5005e+02	-9.9590	-67.397963	-0.001115	-11.148594	-1.888623	-0.000223
1510	1.5015e+02	-9.9387	-67.571559	-0.000872	-8.716174	-1.476560	-0.000174
1511	1.5025e+02	-9.9191	-67.724971	-0.000770	-7.702665	-1.304867	-0.000154
1512	1.5034e+02	-9.8996	-67.890493	-0.000831	-8.310770	-1.407883	-0.000166
1513	1.5044e+02	-9.8798	-68.100424	-0.001054	-10.540489	-1.785607	-0.000211
1514	1.5054e+02	-9.8596	-68.217501	-0.000588	-5.878350	-0.995819	-0.000118
1515	1.5064e+02	-9.8401	-68.338615	-0.000608	-6.081051	-1.030158	-0.000122
1516	1.5074e+02	-9.8203	-68.479915	-0.000709	-7.094560	-1.201851	-0.000142
1517	1.5084e+02	-9.8000	-68.653512	-0.000872	-8.716174	-1.476560	-0.000174
1518	1.5094e+02	-9.7797	-68.746366	-0.000466	-4.662139	-0.789788	-0.000093
1519	1.5104e+02	-9.7595	-68.827109	-0.000405	-4.054034	-0.686772	-0.000081
1520	1.5114e+02	-9.7403	-68.964371	-0.000689	-6.891858	-1.167512	-0.000138
1521	1.5124e+02	-9.7202	-69.041077	-0.000385	-3.851333	-0.652433	-0.000077
1522	1.5134e+02	-9.7011	-69.166228	-0.000628	-6.283753	-1.064497	-0.000126
1523	1.5144e+02	-9.6814	-69.255045	-0.000446	-4.459438	-0.755449	-0.000089
1524	1.5154e+02	-9.6613	-69.351936	-0.000486	-4.864841	-0.824126	-0.000097
1525	1.5164e+02	-9.6405	-69.444790	-0.000466	-4.662139	-0.789788	-0.000093
1526	1.5174e+02	-9.6215	-69.541682	-0.000486	-4.864841	-0.824126	-0.000097
1527	1.5184e+02	-9.6013	-69.598202	-0.000284	-2.837824	-0.480740	-0.000057
1528	1.5194e+02	-9.5819	-69.666833	-0.000345	-3.445929	-0.583756	-0.000069
1529	1.5204e+02	-9.5612	-69.727390	-0.000304	-3.040526	-0.515079	-0.000061
1530	1.5214e+02	-9.5413	-69.775836	-0.000243	-2.432421	-0.412063	-0.000049
1531	1.5224e+02	-9.5212	-69.804095	-0.000142	-1.418912	-0.240370	-0.000028
1532	1.5233e+02	-9.5014	-69.884838	-0.000405	-4.054034	-0.686772	-0.000081
1533	1.5243e+02	-9.4810	-69.913098	-0.000142	-1.418912	-0.240370	-0.000028
1534	1.5253e+02	-9.4610	-69.961544	-0.000243	-2.432421	-0.412063	-0.000049
1535	1.5263e+02	-9.4417	-70.058435	-0.000486	-4.864841	-0.824126	-0.000097
1536	1.5273e+02	-9.4213	-70.094769	-0.000182	-1.824315	-0.309047	-0.000037
1537	1.5283e+02	-9.4012	-70.090732	0.000020	0.202702	0.034339	0.000004
1538	1.5293e+02	-9.3822	-70.175512	-0.000426	-4.256736	-0.721111	-0.000085
1539	1.5303e+02	-9.3623	-70.219920	-0.000223	-2.229719	-0.377725	-0.000045
1540	1.5313e+02	-9.3417	-70.211846	0.000041	0.405403	0.068677	0.000008
1541	1.5323e+02	-9.3223	-70.256255	-0.000223	-2.229719	-0.377725	-0.000045
1542	1.5333e+02	-9.3024	-70.268366	-0.000061	-0.608105	-0.103016	-0.000012
1543	1.5343e+02	-9.2819	-70.332960	-0.000324	-3.243227	-0.549418	-0.000065
1544	1.5353e+02	-9.2622	-70.328923	0.000020	0.202702	0.034339	0.000004
1545	1.5363e+02	-9.2419	-70.328923	0.000000	0.000000	0.000000	0.000000
1546	1.5373e+02	-9.2231	-70.353146	-0.000122	-1.216210	-0.206032	-0.000024
1547	1.5383e+02	-9.2024	-70.373332	-0.000101	-1.013509	-0.171693	-0.000020
1548	1.5393e+02	-9.1817	-70.397554	-0.000122	-1.216210	-0.206032	-0.000024
1549	1.5403e+02	-9.1620	-70.357183	0.000203	2.027017	0.343386	0.000041
1550	1.5413e+02	-9.1428	-70.397554	-0.000203	-2.027017	-0.343386	-0.000041
1551	1.5422e+02	-9.1229	-70.409666	-0.000061	-0.608105	-0.103016	-0.000012
1552	1.5432e+02	-9.1037	-70.385443	0.000122	1.216210	0.206032	0.000024
1553	1.5442e+02	-9.0820	-70.385443	0.000000	0.000000	0.000000	0.000000
1554	1.5452e+02	-9.0634	-70.381406	0.000020	0.202702	0.034339	0.000004
1555	1.5462e+02	-9.0424	-70.401592	-0.000101	-1.013509	-0.171693	-0.000020
1556	1.5472e+02	-9.0233	-70.373332	0.000142	1.418912	0.240370	0.000028
1557	1.5482e+02	-9.0031	-70.401592	-0.000142	-1.418912	-0.240370	-0.000028
1558	1.5492e+02	-8.9830	-70.393517	0.000041	0.405403	0.068677	0.000008
1559	1.5502e+02	-8.9624	-70.417740	-0.000122	-1.216210	-0.206032	-0.000024
1560	1.5512e+02	-8.9432	-70.373332	0.000223	2.229719	0.377725	0.000045
1561	1.5522e+02	-8.9239	-70.345072	0.000142	1.418912	0.240370	0.000028
1562	1.5532e+02	-8.9037	-70.381406	-0.000182	-1.824315	-0.309047	-0.000037
1563	1.5542e+02	-8.8838	-70.385443	-0.000020	-0.202702	-0.034339	-0.000004
1564	1.5552e+02	-8.8640	-70.316812	0.000345	3.445929	0.583756	0.000069
1565	1.5562e+02	-8.8437	-70.292589	0.000122	1.216210	0.206032	0.000024
1566	1.5572e+02	-8.8245	-70.312775	-0.000101	-1.013509	-0.171693	-0.000020
1567	1.5582e+02	-8.8039	-70.292589	0.000101	1.013509	0.171693	0.000020
1568	1.5592e+02	-8.7836	-70.244143	0.000243	2.432421	0.412063	0.000049
1569	1.5602e+02	-8.7645	-70.252218	-0.000041	-0.405403	-0.068677	-0.000008
1570	1.5612e+02	-8.7440	-70.240106	0.000061	0.608105	0.103016	0.000012
1571	1.5622e+02	-8.7251	-70.215883	0.000122	1.216210	0.206032	0.000024
1572	1.5631e+02	-8.7045	-70.191661	0.000122	1.216210	0.206032	0.000024
1573	1.5641e+02	-8.6841	-70.167438	0.000122	1.216210	0.206032	0.000024
1574	1.5651e+02	-8.6646	-70.127066	0.000203	2.027017	0.343386	0.000041
1575	1.5661e+02	-8.6441	-70.078621	0.000243	2.432421	0.412063	0.000049
1576	1.5671e+02	-8.6255	-70.034212	0.000223	2.229719	0.377725	0.000045
1577	1.5681e+02	-8.6047	-70.026138	0.000041	0.405403	0.068677	0.000008
1578	1.5691e+02	-8.5853	-69.997878	0.000142	1.418912	0.240370	0.000028
1579	1.5701e+02	-8.5654	-69.981729	0.000081	0.810807	0.137354	0.000016
1580	1.5711e+02	-8.5455	-69.933284	0.000243	2.432421	0.412063	0.000049
1581	1.5721e+02	-8.5260	-69.860615	0.000365	3.648631	0.618095	0.000073
1582	1.5731e+02	-8.5046	-69.820244	0.000203	2.027017	0.343386	0.000041
1583	1.5741e+02	-8.4858	-69.828318	-0.000041	-0.405403	-0.068677	-0.000008
1584	1.5751e+02	-8.4650	-69.824281	0.000020	0.202702	0.034339	0.000004
1585	1.5761e+02	-8.4457	-69.739501	0.000426	4.256736	0.721111	0.000085
1586	1.5771e+02	-8.4270	-69.695093	0.000223	2.229719	0.377725	0.000045
1587	1.5781e+02	-8.4055	-69.682981	0.000061	0.608105	0.103016	0.000012
1588	1.5791e+02	-8.3865	-69.610313	0.000365	3.648631	0.618095	0.000073
1589	1.5801e+02	-8.3662	-69.598202	0.000061	0.608105	0.103016	0.000012
1590	1.5811e+02	-8.3463	-69.549756	0.000243	2.432421	0.412063	0.000049
1591	1.5821e+02	-8.3253	-69.481125	0.000345	3.445929	0.583756	0.000069
1592	1.5830e+02	-8.3066	-69.440753	0.000203	2.027017	0.343386	0.000041
1593	1.5840e+02	-8.2858	-69.412493	0.000142	1.418912	0.240370	0.000028
1594	1.5850e+02	-8.2655	-69.335788	0.000385	3.851333	0.652433	0.000077
1595	1.5860e+02	-8.2467	-69.279268	0.000284	2.837824	0.480740	0.000057
1596	1.5870e+02	-8.2260	-69.271194	0.000041	0.405403	0.068677	0.000008
1597	1.5880e+02	-8.2061	-69.190451	0.000405	4.054034	0.686772	0.000081
1598	1.5890e+02	-8.1874	-69.158154	0.000162	1.621614	0.274709	0.000032
1599	1.5900e+02	-8.1662	-69.109708	0.000243	2.432421	0.412063	0.000049
1600	1.5910e+02	-8.1476	-69.020891	0.000446	4.459438	0.755449	0.000089
1601	1.5920e+02	-8.1262	-68.996668	0.000122	1.216210	0.206032	0.000024
1602	1.5930e+02	-8.1075	-68.940148	0.000284	2.837824	0.480740	0.000057
1603	1.5940e+02	-8.0865	-68.924000	0.000081	0.810807	0.137354	0.000016
1604	1.5950e+02	-8.0679	-68.863443	0.000304	3.040526	0.515079	0.000061
1605	1.5960e+02	-8.0478	-68.798849	0.000324	3.243227	0.549418	0.000065
1606	1.5970e+02	-8.0273	-68.718106	0.000405	4.054034	0.686772	0.000081
1607	1.5980e+02	-8.0081	-68.653512	0.000324	3.243227	0.549418	0.000065
1608	1.5990e+02	-7.9865	-68.641400	0.000061	0.608105	0.103016	0.000012
1609	1.6000e+02	-7.9669	-68.560658	0.000405	4.054034	0.686772	0.000081
1610	1.6010e+02	-7.9474	-68.524323	0.000182	1.824315	0.309047	0.000037
1611	1.6019e+02	-7.9271	-68.435506	0.000446	4.459438	0.755449	0.000089
1612	1.6029e+02	-7.9087	-68.419358	0.000081	0.810807	0.137354	0.000016
1613	1.6039e+02	-7.8880	-68.342652	0.000385	3.851333	0.652433	0.000077
1614	1.6049e+02	-7.8671	-68.294207	0.000243	2.432421	0.412063	0.000049
1615	1.6059e+02	-7.8470	-68.237687	0.000284	2.837824	0.480740	0.000057
1616	1.6069e+02	-7.8278	-68.140796	0.000486	4.864841	0.824126	0.000097
1617	1.6079e+02	-7.8085	-68.064090	0.000385	3.851333	0.652433	0.000077
1618	1.6089e+02	-7.7887	-68.051979	0.000061	0.608105	0.103016	0.000012
1619	1.6099e+02	-7.7686	-67.955087	0.000486	4.864841	0.824126	0.000097
1620	1.6109e+02	-7.7481	-67.902605	0.000264	2.635122	0.446402	0.000053
1621	1.6119e+02	-7.7290	-67.817825	0.000426	4.256736	0.721111	0.000085
1622	1.6129e+02	-7.7083	-67.781490	0.000182	1.824315	0.309047	0.000037
1623	1.6139e+02	-7.6884	-67.729008	0.000264	2.635122	0.446402	0.000053
1624	1.6149e+02	-7.6688	-67.615968	0.000568	5.675648	0.961481	0.000114
1625	1.6159e+02	-7.6486	-67.587708	0.000142	1.418912	0.240370	0.000028
1626	1.6169e+02	-7.6285	-67.519077	0.000345	3.445929	0.583756	0.000069
1627	1.6179e+02	-7.6094	-67.458520	0.000304	3.040526	0.515079	0.000061
1628	1.6189e+02	-7.5887	-67.402000	0.000284	2.837824	0.480740	0.000057
1629	1.6199e+02	-7.5686	-67.333368	0.000345	3.445929	0.583756	0.000069
1630	1.6209e+02	-7.5500	-67.256663	0.000385	3.851333	0.652433	0.000077
1631	1.6219e+02	-7.5302	-67.188032	0.000345	3.445929	0.583756	0.000069
1632	1.6228e+02	-7.5100	-67.111326	0.000385	3.851333	0.652433	0.000077
1633	1.6238e+02	-7.4899	-67.083066	0.000142	1.418912	0.240370	0.000028
1634	1.6248e+02	-7.4698	-66.990212	0.000466	4.662139	0.789788	0.000093
1635	1.6258e+02	-7.4510	-66.909469	0.000405	4.054034	0.686772	0.000081
1636	1.6268e+02	-7.4307	-66.828726	0.000405	4.054034	0.686772	0.000081
1637	1.6278e+02	-7.4106	-66.764132	0.000324	3.243227	0.549418	0.000065
1638	1.6288e+02	-7.3897	-66.667241	0.000486	4.864841	0.824126	0.000097
1639	1.6298e+02	-7.3700	-66.634944	0.000162	1.621614	0.274709	0.000032
1640	1.6308e+02	-7.3502	-66.582461	0.000264	2.635122	0.446402	0.000053
1641	1.6318e+02	-7.3311	-66.457310	0.000628	6.283753	1.064497	0.000126
1642	1.6328e+02	-7.3106	-66.416939	0.000203	2.027017	0.343386	0.000041
1643	1.6338e+02	-7.2909	-66.336196	0.000405	4.054034	0.686772	0.000081
1644	1.6348e+02	-7.2702	-66.251416	0.000426	4.256736	0.721111	0.000085
1645	1.6358e+02	-7.2510	-66.186822	0.000324	3.243227	0.549418	0.000065
1646	1.6368e+02	-7.2308	-66.089931	0.000486	4.864841	0.824126	0.000097
1647	1.6378e+02	-7.2109	-66.037448	0.000264	2.635122	0.446402	0.000053
1648	1.6388e+02	-7.1912	-65.928445	0.000547	5.472946	0.927142	0.000110
1649	1.6398e+02	-7.1710	-65.875962	0.000264	2.635122	0.446402	0.000053
1650	1.6408e+02	-7.1523	-65.815405	0.000304	3.040526	0.515079	0.000061
1651	1.6418e+02	-7.1313	-65.710440	0.000527	5.270245	0.892804	0.000105
1652	1.6427e+02	-7.1121	-65.645846	0.000324	3.243227	0.549418	0.000065
1653	1.6437e+02	-7.0915	-65.528769	0.000588	5.878350	0.995819	0.000118
1654	1.6447e+02	-7.0715	-65.468212	0.000304	3.040526	0.515079	0.000061
1655	1.6457e+02	-7.0519	-65.391506	0.000385	3.851333	0.652433	0.000077
1656	1.6467e+02	-7.0322	-65.314801	0.000385	3.851333	0.652433	0.000077
1657	1.6477e+02	-7.0117	-65.250206	0.000324	3.243227	0.549418	0.000065
1658	1.6487e+02	-6.9917	-65.149278	0.000507	5.067543	0.858465	0.000101
1659	1.6497e+02	-6.9714	-65.060461	0.000446	4.459438	0.755449	0.000089
1660	1.6507e+02	-6.9518	-64.975681	0.000426	4.256736	0.721111	0.000085
1661	1.6517e+02	-6.9323	-64.894938	0.000405	4.054034	0.686772	0.000081
1662	1.6527e+02	-6.9121	-64.794010	0.000507	5.067543	0.858465	0.000101
1663	1.6537e+02	-6.8918	-64.741527	0.000264	2.635122	0.446402	0.000053
1664	1.6547e+02	-6.8726	-64.640599	0.000507	5.067543	0.858465	0.000101
1665	1.6557e+02	-6.8530	-64.600228	0.000203	2.027017	0.343386	0.000041
1666	1.6567e+02	-6.8324	-64.523522	0.000385	3.851333	0.652433	0.000077
1667	1.6577e+02	-6.8135	-64.422594	0.000507	5.067543	0.858465	0.000101
1668	1.6587e+02	-6.7920	-64.337814	0.000426	4.256736	0.721111	0.000085
1669	1.6597e+02	-6.7731	-64.248997	0.000446	4.459438	0.755449	0.000089
1670	1.6607e+02	-6.7525	-64.148068	0.000507	5.067543	0.858465	0.000101
1671	1.6616e+02	-6.7334	-64.103660	0.000223	2.229719	0.377725	0.000045
1672	1.6626e+02	-6.7123	-64.018880	0.000426	4.256736	0.721111	0.000085
1673	1.6636e+02	-6.6928	-63.926026	0.000466	4.662139	0.789788	0.000093
1674	1.6646e+02	-6.6736	-63.825097	0.000507	5.067543	0.858465	0.000101
1675	1.6656e+02	-6.6537	-63.744355	0.000405	4.054034	0.686772	0.000081
1676	1.6666e+02	-6.6331	-63.651501	0.000466	4.662139	0.789788	0.000093
1677	1.6676e+02	-6.6136	-63.607092	0.000223	2.229719	0.377725	0.000045
1678	1.6686e+02	-6.5933	-63.506164	0.000507	5.067543	0.858465	0.000101
1679	1.6696e+02	-6.5733	-63.437532	0.000345	3.445929	0.583756	0.000069
1680	1.6706e+02	-6.5524	-63.276047	0.000811	8.108069	1.373544	0.000162
1681	1.6716e+02	-6.5329	-63.227601	0.000243	2.432421	0.412063	0.000049
1682	1.6726e+02	-6.5135	-63.207416	0.000101	1.013509	0.171693	0.000020
1683	1.6736e+02	-6.4938	-63.074190	0.000669	6.689157	1.133174	0.000134
1684	1.6746e+02	-6.4737	-62.997485	0.000385	3.851333	0.652433	0.000077
1685	1.6756e+02	-6.4542	-62.892519	0.000527	5.270245	0.892804	0.000105
1686	1.6766e+02	-6.4351	-62.803702	0.000446	4.459438	0.755449	0.000089
1687	1.6776e+02	-6.4142	-62.731034	0.000365	3.648631	0.618095	0.000073
1688	1.6786e+02	-6.3943	-62.678551	0.000264	2.635122	0.446402	0.000053
1689	1.6796e+02	-6.3737	-62.565511	0.000568	5.675648	0.961481	0.000114
1690	1.6806e+02	-6.3538	-62.496880	0.000345	3.445929	0.583756	0.000069
1691	1.6816e+02	-6.3342	-62.391914	0.000527	5.270245	0.892804	0.000105
1692	1.6825e+02	-6.3137	-62.315209	0.000385	3.851333	0.652433	0.000077
1693	1.6835e+02	-6.2943	-62.218317	0.000486	4.864841	0.824126	0.000097
1694	1.6845e+02	-6.2747	-62.141612	0.000385	3.851333	0.652433	0.000077
1695	1.6855e+02	-6.2509	-62.056832	0.000426	4.256736	0.721111	0.000085
1696	1.6865e+02	-6.2348	-61.951866	0.000527	5.270245	0.892804	0.000105
1697	1.6875e+02	-6.2153	-61.834790	0.000588	5.878350	0.995819	0.000118
1698	1.6885e+02	-6.1955	-61.770195	0.000324	3.243227	0.549418	0.000065
1699	1.6895e+02	-6.1755	-61.681378	0.000446	4.459438	0.755449	0.000089
1700	1.6905e+02	-6.1552	-61.564301	0.000588	5.878350	0.995819	0.000118
1701	1.6915e+02	-6.1353	-61.511819	0.000264	2.635122	0.446402	0.000053
1702	1.6925e+02	-6.1150	-61.390705	0.000608	6.081051	1.030158	0.000122
1703	1.6935e+02	-6.0956	-61.318036	0.000365	3.648631	0.618095	0.000073
1704	1.6945e+02	-6.0753	-61.225182	0.000466	4.662139	0.789788	0.000093
1705	1.6955e+02	-6.0550	-61.136365	0.000446	4.459438	0.755449	0.000089
1706	1.6965e+02	-6.0368	-61.003140	0.000669	6.689157	1.133174	0.000134
1707	1.6975e+02	-6.0159	-60.974880	0.000142	1.418912	0.240370	0.000028
1708	1.6985e+02	-5.9957	-60.845691	0.000649	6.486455	1.098835	0.000130
1709	1.6995e+02	-5.9753	-60.752837	0.000466	4.662139	0.789788	0.000093
1710	1.7005e+02	-5.9564	-60.643834	0.000547	5.472946	0.927142	0.000110
1711	1.7015e+02	-5.9355	-60.555018	0.000446	4.459438	0.755449	0.000089
1712	1.7024e+02	-5.9161	-60.478312	0.000385	3.851333	0.652433	0.000077
1713	1.7034e+02	-5.8958	-60.349124	0.000649	6.486455	1.098835	0.000130
1714	1.7044e+02	-5.8759	-60.284529	0.000324	3.243227	0.549418	0.000065
1715	1.7054e+02	-5.8565	-60.207824	0.000385	3.851333	0.652433	0.000077
1716	1.7064e+02	-5.8359	-60.102858	0.000527	5.270245	0.892804	0.000105
1717	1.7074e+02	-5.8165	-60.038264	0.000324	3.243227	0.549418	0.000065
1718	1.7084e+02	-5.7968	-59.973670	0.000324	3.243227	0.549418	0.000065
1719	1.7094e+02	-5.7767	-59.820259	0.000770	7.702665	1.304867	0.000154
1720	1.7104e+02	-5.7553	-59.731442	0.000446	4.459438	0.755449	0.000089
1721	1.7114e+02	-5.7368	-59.622439	0.000547	5.472946	0.927142	0.000110
1722	1.7124e+02	-5.7172	-59.533622	0.000446	4.459438	0.755449	0.000089
1723	1.7134e+02	-5.6972	-59.444805	0.000446	4.459438	0.755449	0.000089
1724	1.7144e+02	-5.6775	-59.335803	0.000547	5.472946	0.927142	0.000110
1725	1.7154e+02	-5.6567	-59.267171	0.000345	3.445929	0.583756	0.000069
1726	1.7164e+02	-5.6378	-59.170280	0.000486	4.864841	0.824126	0.000097
1727	1.7174e+02	-5.6171	-59.069352	0.000507	5.067543	0.858465	0.000101
1728	1.7184e+02	-5.5972	-58.960349	0.000547	5.472946	0.927142	0.000110
1729	1.7194e+02	-5.5785	-58.903829	0.000284	2.837824	0.480740	0.000057
1730	1.7204e+02	-5.5563	-58.798863	0.000527	5.270245	0.892804	0.000105
1731	1.7213e+02	-5.5373	-58.746381	0.000264	2.635122	0.446402	0.000053
1732	1.7223e+02	-5.5174	-58.605081	0.000709	7.094560	1.201851	0.000142
1733	1.7233e+02	-5.4969	-58.528375	0.000385	3.851333	0.652433	0.000077
1734	1.7243e+02	-5.4778	-58.467818	0.000304	3.040526	0.515079	0.000061
1735	1.7253e+02	-5.4576	-58.326519	0.000709	7.094560	1.201851	0.000142
1736	1.7263e+02	-5.4376	-58.274036	0.000264	2.635122	0.446402	0.000053
1737	1.7273e+02	-5.4179	-58.144847	0.000649	6.486455	1.098835	0.000130
1738	1.7283e+02	-5.3984	-58.056030	0.000446	4.459438	0.755449	0.000089
1739	1.7293e+02	-5.3784	-57.971251	0.000426	4.256736	0.721111	0.000085
1740	1.7303e+02	-5.3583	-57.850137	0.000608	6.081051	1.030158	0.000122
1741	1.7313e+02	-5.3380	-57.757282	0.000466	4.662139	0.789788	0.000093
1742	1.7323e+02	-5.3186	-57.672503	0.000426	4.256736	0.721111	0.000085
1743	1.7333e+02	-5.2986	-57.563500	0.000547	5.472946	0.927142	0.000110
1744	1.7343e+02	-5.2783	-57.454497	0.000547	5.472946	0.927142	0.000110
1745	1.7353e+02	-5.2594	-57.389903	0.000324	3.243227	0.549418	0.000065
1746	1.7363e+02	-5.2388	-57.264752	0.000628	6.283753	1.064497	0.000126
1747	1.7373e+02	-5.2182	-57.192083	0.000365	3.648631	0.618095	0.000073
1748	1.7383e+02	-5.1982	-57.107304	0.000426	4.256736	0.721111	0.000085
1749	1.7393e+02	-5.1791	-56.982152	0.000628	6.283753	1.064497	0.000126
1750	1.7403e+02	-5.1585	-56.869113	0.000568	5.675648	0.961481	0.000114
1751	1.7413e+02	-5.1390	-56.760110	0.000547	5.472946	0.927142	0.000110
1752	1.7422e+02	-5.1183	-56.703590	0.000284	2.837824	0.480740	0.000057
1753	1.7432e+02	-5.0986	-56.582476	0.000608	6.081051	1.030158	0.000122
1754	1.7442e+02	-5.0798	-56.517882	0.000324	3.243227	0.549418	0.000065
1755	1.7452e+02	-5.0587	-56.408879	0.000547	5.472946	0.927142	0.000110
1756	1.7462e+02	-5.0389	-56.279691	0.000649	6.486455	1.098835	0.000130
1757	1.7472e+02	-5.0191	-56.182799	0.000486	4.864841	0.824126	0.000097
1758	1.7482e+02	-5.0005	-56.093983	0.000446	4.459438	0.755449	0.000089
1759	1.7492e+02	-4.9800	-55.997091	0.000486	4.864841	0.824126	0.000097
1760	1.7502e+02	-4.9596	-55.920386	0.000385	3.851333	0.652433	0.000077
1761	1.7512e+02	-4.9405	-55.766975	0.000770	7.702665	1.304867	0.000154
1762	1.7522e+02	-4.9196	-55.674120	0.000466	4.662139	0.789788	0.000093
1763	1.7532e+02	-4.9008	-55.581266	0.000466	4.662139	0.789788	0.000093
1764	1.7542e+02	-4.8804	-55.464189	0.000588	5.878350	0.995819	0.000118
1765	1.7552e+02	-4.8601	-55.371335	0.000466	4.662139	0.789788	0.000093
1766	1.7562e+02	-4.8404	-55.282518	0.000446	4.459438	0.755449	0.000089
1767	1.7572e+02	-4.8201	-55.161404	0.000608	6.081051	1.030158	0.000122
1768	1.7582e+02	-4.8006	-55.084699	0.000385	3.851333	0.652433	0.000077
1769	1.7592e+02	-4.7807	-54.955510	0.000649	6.486455	1.098835	0.000130
1770	1.7602e+02	-4.7610	-54.846508	0.000547	5.472946	0.927142	0.000110
1771	1.7612e+02	-4.7408	-54.753653	0.000466	4.662139	0.789788	0.000093
1772	1.7621e+02	-4.7217	-54.636577	0.000588	5.878350	0.995819	0.000118
1773	1.7631e+02	-4.7003	-54.535648	0.000507	5.067543	0.858465	0.000101
1774	1.7641e+02	-4.6817	-54.422608	0.000568	5.675648	0.961481	0.000114
1775	1.7651e+02	-4.6611	-54.285346	0.000689	6.891858	1.167512	0.000138
1776	1.7661e+02	-4.6410	-54.224789	0.000304	3.040526	0.515079	0.000061
1777	1.7671e+02	-4.6216	-54.107712	0.000588	5.878350	0.995819	0.000118
1778	1.7681e+02	-4.6012	-54.014858	0.000466	4.662139	0.789788	0.000093
1779	1.7691e+02	-4.5815	-53.901818	0.000568	5.675648	0.961481	0.000114
1780	1.7701e+02	-4.5609	-53.776667	0.000628	6.283753	1.064497	0.000126
1781	1.7711e+02	-4.5409	-53.703998	0.000365	3.648631	0.618095	0.000073
1782	1.7721e+02	-4.5218	-53.594995	0.000547	5.472946	0.927142	0.000110
1783	1.7731e+02	-4.5016	-53.494067	0.000507	5.067543	0.858465	0.000101
1784	1.7741e+02	-4.4820	-53.385064	0.000547	5.472946	0.927142	0.000110
1785	1.7751e+02	-4.4611	-53.284136	0.000507	5.067543	0.858465	0.000101
1786	1.7761e+02	-4.4420	-53.158985	0.000628	6.283753	1.064497	0.000126
1787	1.7771e+02	-4.4214	-53.078242	0.000405	4.054034	0.686772	0.000081
1788	1.7781e+02	-4.4025	-52.969239	0.000547	5.472946	0.927142	0.000110
1789	1.7791e+02	-4.3819	-52.868311	0.000507	5.067543	0.858465	0.000101
1790	1.7801e+02	-4.3621	-52.722974	0.000730	7.297262	1.236190	0.000146
1791	1.7810e+02	-4.3430	-52.622046	0.000507	5.067543	0.858465	0.000101
1792	1.7820e+02	-4.3222	-52.529192	0.000466	4.662139	0.789788	0.000093
1793	1.7830e+02	-4.3025	-52.436338	0.000466	4.662139	0.789788	0.000093
1794	1.7840e+02	-4.2828	-52.286964	0.000750	7.499964	1.270528	0.000150
1795	1.7850e+02	-4.2622	-52.214295	0.000365	3.648631	0.618095	0.000073
1796	1.7860e+02	-4.2420	-52.089144	0.000628	6.283753	1.064497	0.000126
1797	1.7870e+02	-4.2225	-51.951881	0.000689	6.891858	1.167512	0.000138
1798	1.7880e+02	-4.2025	-51.887287	0.000324	3.243227	0.549418	0.000065
1799	1.7890e+02	-4.1815	-51.758099	0.000649	6.486455	1.098835	0.000130
1800	1.7900e+02	-4.1627	-51.649096	0.000547	5.472946	0.927142	0.000110
1801	1.7910e+02	-4.1428	-51.532019	0.000588	5.878350	0.995819	0.000118
1802	1.7920e+02	-4.1238	-51.439165	0.000466	4.662139	0.789788	0.000093
1803	1.7930e+02	-4.1030	-51.314014	0.000628	6.283753	1.064497	0.000126
1804	1.7940e+02	-4.0826	-51.221160	0.000466	4.662139	0.789788	0.000093
1805	1.7950e+02	-4.0627	-51.079860	0.000709	7.094560	1.201851	0.000142
1806	1.7960e+02	-4.0436	-50.991043	0.000446	4.459438	0.755449	0.000089
1807	1.7970e+02	-4.0219	-50.853780	0.000689	6.891858	1.167512	0.000138
1808	1.7980e+02	-4.0038	-50.736703	0.000588	5.878350	0.995819	0.000118
1809	1.7990e+02	-3.9835	-50.627701	0.000547	5.472946	0.927142	0.000110
1810	1.8000e+02	-3.9627	-50.514661	0.000568	5.675648	0.961481	0.000114
1811	1.8009e+02	-3.9433	-50.429881	0.000426	4.256736	0.721111	0.000085
1812	1.8019e+02	-3.9236	-50.304730	0.000628	6.283753	1.064497	0.000126
1813	1.8029e+02	-3.9038	-50.195727	0.000547	5.472946	0.927142	0.000110
1814	1.8039e+02	-3.8842	-50.070576	0.000628	6.283753	1.064497	0.000126
1815	1.8049e+02	-3.8641	-49.937351	0.000669	6.689157	1.133174	0.000134
1816	1.8059e+02	-3.8445	-49.824311	0.000568	5.675648	0.961481	0.000114
1817	1.8069e+02	-3.8245	-49.691085	0.000669	6.689157	1.133174	0.000134
1818	1.8079e+02	-3.8039	-49.594194	0.000486	4.864841	0.824126	0.000097
1819	1.8089e+02	-3.7841	-49.481154	0.000568	5.675648	0.961481	0.000114
1820	1.8099e+02	-3.7649	-49.376189	0.000527	5.270245	0.892804	0.000105
1821	1.8109e+02	-3.7444	-49.218740	0.000791	7.905367	1.339205	0.000158
1822	1.8119e+02	-3.7236	-49.109738	0.000547	5.472946	0.927142	0.000110
1823	1.8129e+02	-3.7047	-49.020921	0.000446	4.459438	0.755449	0.000089
1824	1.8139e+02	-3.6853	-48.915955	0.000527	5.270245	0.892804	0.000105
1825	1.8149e+02	-3.6609	-48.794841	0.000608	6.081051	1.030158	0.000122
1826	1.8159e+02	-3.6451	-48.661616	0.000669	6.689157	1.133174	0.000134
1827	1.8169e+02	-3.6255	-48.552613	0.000547	5.472946	0.927142	0.000110
1828	1.8179e+02	-3.6047	-48.391128	0.000811	8.108069	1.373544	0.000162
1829	1.8189e+02	-3.5855	-48.314422	0.000385	3.851333	0.652433	0.000077
1830	1.8199e+02	-3.5651	-48.177159	0.000689	6.891858	1.167512	0.000138
1831	1.8209e+02	-3.5445	-48.080268	0.000486	4.864841	0.824126	0.000097
1832	1.8218e+02	-3.5245	-47.906671	0.000872	8.716174	1.476560	0.000174
1833	1.8228e+02	-3.5049	-47.821891	0.000426	4.256736	0.721111	0.000085
1834	1.8238e+02	-3.4862	-47.741149	0.000405	4.054034	0.686772	0.000081
1835	1.8248e+02	-3.4650	-47.587738	0.000770	7.702665	1.304867	0.000154
1836	1.8258e+02	-3.4457	-47.458549	0.000649	6.486455	1.098835	0.000130
1837	1.8268e+02	-3.4258	-47.345509	0.000568	5.675648	0.961481	0.000114
1838	1.8278e+02	-3.4059	-47.272841	0.000365	3.648631	0.618095	0.000073
1839	1.8288e+02	-3.3868	-47.091170	0.000912	9.121577	1.545237	0.000183
1840	1.8298e+02	-3.3661	-47.006390	0.000426	4.256736	0.721111	0.000085
1841	1.8308e+02	-3.3455	-46.893350	0.000568	5.675648	0.961481	0.000114
1842	1.8318e+02	-3.3263	-46.764162	0.000649	6.486455	1.098835	0.000130
1843	1.8328e+02	-3.3060	-46.651122	0.000568	5.675648	0.961481	0.000114
1844	1.8338e+02	-3.2867	-46.509822	0.000709	7.094560	1.201851	0.000142
1845	1.8348e+02	-3.2662	-46.416968	0.000466	4.662139	0.789788	0.000093
1846	1.8358e+02	-3.2466	-46.283743	0.000669	6.689157	1.133174	0.000134
1847	1.8368e+02	-3.2270	-46.174740	0.000547	5.472946	0.927142	0.000110
1848	1.8378e+02	-3.2072	-46.053626	0.000608	6.081051	1.030158	0.000122
1849	1.8388e+02	-3.1860	-45.916363	0.000689	6.891858	1.167512	0.000138
1850	1.8398e+02	-3.1667	-45.787175	0.000649	6.486455	1.098835	0.000130
1851	1.8407e+02	-3.1464	-45.682209	0.000527	5.270245	0.892804	0.000105
1852	1.8417e+02	-3.1267	-45.565133	0.000588	5.878350	0.995819	0.000118
1853	1.8427e+02	-3.1068	-45.444018	0.000608	6.081051	1.030158	0.000122
1854	1.8437e+02	-3.0872	-45.306756	0.000689	6.891858	1.167512	0.000138
1855	1.8447e+02	-3.0672	-45.193716	0.000568	5.675648	0.961481	0.000114
1856	1.8457e+02	-3.0472	-45.068565	0.000628	6.283753	1.064497	0.000126
1857	1.8467e+02	-3.0268	-44.963599	0.000527	5.270245	0.892804	0.000105
1858	1.8477e+02	-3.0074	-44.842485	0.000608	6.081051	1.030158	0.000122
1859	1.8487e+02	-2.9860	-44.697148	0.000730	7.297262	1.236190	0.000146
1860	1.8497e+02	-2.9671	-44.567960	0.000649	6.486455	1.098835	0.000130
1861	1.8507e+02	-2.9476	-44.434735	0.000669	6.689157	1.133174	0.000134
1862	1.8517e+02	-2.9276	-44.333806	0.000507	5.067543	0.858465	0.000101
1863	1.8527e+02	-2.9075	-44.200581	0.000669	6.689157	1.133174	0.000134
1864	1.8537e+02	-2.8875	-44.083504	0.000588	5.878350	0.995819	0.000118
1865	1.8547e+02	-2.8677	-43.970464	0.000568	5.675648	0.961481	0.000114
1866	1.8557e+02	-2.8485	-43.849350	0.000608	6.081051	1.030158	0.000122
1867	1.8567e+02	-2.8275	-43.695939	0.000770	7.702665	1.304867	0.000154
1868	1.8577e+02	-2.8088	-43.582899	0.000568	5.675648	0.961481	0.000114
1869	1.8587e+02	-2.7885	-43.429488	0.000770	7.702665	1.304867	0.000154
1870	1.8597e+02	-2.7684	-43.340671	0.000446	4.459438	0.755449	0.000089
1871	1.8606e+02	-2.7483	-43.215520	0.000628	6.283753	1.064497	0.000126
1872	1.8616e+02	-2.7283	-43.082294	0.000669	6.689157	1.133174	0.000134
1873	1.8626e+02	-2.7086	-42.973291	0.000547	5.472946	0.927142	0.000110
1874	1.8636e+02	-2.6880	-42.811806	0.000811	8.108069	1.373544	0.000162
1875	1.8646e+02	-2.6690	-42.690692	0.000608	6.081051	1.030158	0.000122
1876	1.8656e+02	-2.6482	-42.569578	0.000608	6.081051	1.030158	0.000122
1877	1.8666e+02	-2.6293	-42.440389	0.000649	6.486455	1.098835	0.000130
1878	1.8676e+02	-2.6077	-42.343498	0.000486	4.864841	0.824126	0.000097
1879	1.8686e+02	-2.5887	-42.182013	0.000811	8.108069	1.373544	0.000162
1880	1.8696e+02	-2.5691	-42.068973	0.000568	5.675648	0.961481	0.000114
1881	1.8706e+02	-2.5491	-41.939785	0.000649	6.486455	1.098835	0.000130
1882	1.8716e+02	-2.5288	-41.822708	0.000588	5.878350	0.995819	0.000118
1883	1.8726e+02	-2.5097	-41.649111	0.000872	8.716174	1.476560	0.000174
1884	1.8736e+02	-2.4896	-41.527997	0.000608	6.081051	1.030158	0.000122
1885	1.8746e+02	-2.4696	-41.394771	0.000669	6.689157	1.133174	0.000134
1886	1.8756e+02	-2.4496	-41.289806	0.000527	5.270245	0.892804	0.000105
1887	1.8766e+02	-2.4298	-41.168692	0.000608	6.081051	1.030158	0.000122
1888	1.8776e+02	-2.4102	-41.051615	0.000588	5.878350	0.995819	0.000118
1889	1.8786e+02	-2.3904	-40.894166	0.000791	7.905367	1.339205	0.000158
1890	1.8796e+02	-2.3700	-40.817461	0.000385	3.851333	0.652433	0.000077
1891	1.8806e+02	-2.3498	-40.660013	0.000791	7.905367	1.339205	0.000158
1892	1.8815e+02	-2.3314	-40.530824	0.000649	6.486455	1.098835	0.000130
1893	1.8825e+02	-2.3111	-40.405673	0.000628	6.283753	1.064497	0.000126
1894	1.8835e+02	-2.2914	-40.272448	0.000669	6.689157	1.133174	0.000134
1895	1.8845e+02	-2.2707	-40.143259	0.000649	6.486455	1.098835	0.000130
1896	1.8855e+02	-2.2509	-40.005997	0.000689	6.891858	1.167512	0.000138
1897	1.8865e+02	-2.2296	-39.892957	0.000568	5.675648	0.961481	0.000114
1898	1.8875e+02	-2.2102	-39.771843	0.000608	6.081051	1.030158	0.000122
1899	1.8885e+02	-2.1914	-39.687063	0.000426	4.256736	0.721111	0.000085
1900	1.8895e+02	-2.1709	-39.553837	0.000669	6.689157	1.133174	0.000134
1901	1.8905e+02	-2.1507	-39.392352	0.000811	8.108069	1.373544	0.000162
1902	1.8915e+02	-2.1312	-39.283349	0.000547	5.472946	0.927142	0.000110
1903	1.8925e+02	-2.1110	-39.150124	0.000669	6.689157	1.133174	0.000134
1904	1.8935e+02	-2.0905	-39.024973	0.000628	6.283753	1.064497	0.000126
1905	1.8945e+02	-2.0715	-38.907896	0.000588	5.878350	0.995819	0.000118
1906	1.8955e+02	-2.0512	-38.742373	0.000831	8.310770	1.407883	0.000166
1907	1.8965e+02	-2.0319	-38.665668	0.000385	3.851333	0.652433	0.000077
1908	1.8975e+02	-2.0116	-38.504182	0.000811	8.108069	1.373544	0.000162
1909	1.8985e+02	-1.9910	-38.370957	0.000669	6.689157	1.133174	0.000134
1910	1.8995e+02	-1.9718	-38.229657	0.000709	7.094560	1.201851	0.000142
1911	1.9004e+02	-1.9522	-38.144877	0.000426	4.256736	0.721111	0.000085
1912	1.9014e+02	-1.9323	-38.007614	0.000689	6.891858	1.167512	0.000138
1913	1.9024e+02	-1.9113	-37.829980	0.000892	8.918876	1.510898	0.000179
1914	1.9034e+02	-1.8923	-37.753275	0.000385	3.851333	0.652433	0.000077
1915	1.9044e+02	-1.8721	-37.616012	0.000689	6.891858	1.167512	0.000138
1916	1.9054e+02	-1.8528	-37.474712	0.000709	7.094560	1.201851	0.000142
1917	1.9064e+02	-1.8323	-37.337450	0.000689	6.891858	1.167512	0.000138
1918	1.9074e+02	-1.8095	-37.224410	0.000568	5.675648	0.961481	0.000114
1919	1.9084e+02	-1.7920	-37.079073	0.000730	7.297262	1.236190	0.000146
1920	1.9094e+02	-1.7722	-36.933736	0.000730	7.297262	1.236190	0.000146
1921	1.9104e+02	-1.7514	-36.816659	0.000588	5.878350	0.995819	0.000118
1922	1.9114e+02	-1.7328	-36.651137	0.000831	8.310770	1.407883	0.000166
1923	1.9124e+02	-1.7129	-36.550208	0.000507	5.067543	0.858465	0.000101
1924	1.9134e+02	-1.6896	-36.449280	0.000507	5.067543	0.858465	0.000101
1925	1.9144e+02	-1.6726	-36.283757	0.000831	8.310770	1.407883	0.000166
1926	1.9154e+02	-1.6527	-36.182829	0.000507	5.067543	0.858465	0.000101
1927	1.9164e+02	-1.6333	-36.033455	0.000750	7.499964	1.270528	0.000150
1928	1.9174e+02	-1.6119	-35.892155	0.000709	7.094560	1.201851	0.000142
1929	1.9184e+02	-1.5927	-35.754893	0.000689	6.891858	1.167512	0.000138
1930	1.9194e+02	-1.5731	-35.645890	0.000547	5.472946	0.927142	0.000110
1931	1.9203e+02	-1.5524	-35.500553	0.000730	7.297262	1.236190	0.000146
1932	1.9213e+02	-1.5324	-35.326956	0.000872	8.716174	1.476560	0.000174
1933	1.9223e+02	-1.5131	-35.217954	0.000547	5.472946	0.927142	0.000110
1934	1.9233e+02	-1.4935	-35.076654	0.000709	7.094560	1.201851	0.000142
1935	1.9243e+02	-1.4734	-34.955540	0.000608	6.081051	1.030158	0.000122
1936	1.9253e+02	-1.4536	-34.822314	0.000669	6.689157	1.133174	0.000134
1937	1.9263e+02	-1.4335	-34.685052	0.000689	6.891858	1.167512	0.000138
1938	1.9273e+02	-1.4130	-34.555863	0.000649	6.486455	1.098835	0.000130
1939	1.9283e+02	-1.3928	-34.434749	0.000608	6.081051	1.030158	0.000122
1940	1.9293e+02	-1.3731	-34.273264	0.000811	8.108069	1.373544	0.000162
1941	1.9303e+02	-1.3535	-34.140038	0.000669	6.689157	1.133174	0.000134
1942	1.9313e+02	-1.3344	-34.010850	0.000649	6.486455	1.098835	0.000130
1943	1.9323e+02	-1.3141	-33.922033	0.000446	4.459438	0.755449	0.000089
1944	1.9333e+02	-1.2940	-33.720176	0.001014	10.135086	1.716930	0.000203
1945	1.9343e+02	-1.2741	-33.615211	0.000527	5.270245	0.892804	0.000105
1946	1.9353e+02	-1.2546	-33.477948	0.000689	6.891858	1.167512	0.000138
1947	1.9363e+02	-1.2342	-33.360871	0.000588	5.878350	0.995819	0.000118
1948	1.9373e+02	-1.2145	-33.215534	0.000730	7.297262	1.236190	0.000146
1949	1.9383e+02	-1.1951	-33.118643	0.000486	4.864841	0.824126	0.000097
1950	1.9393e+02	-1.1745	-32.945046	0.000872	8.716174	1.476560	0.000174
1951	1.9403e+02	-1.1540	-32.803746	0.000709	7.094560	1.201851	0.000142
1952	1.9412e+02	-1.1345	-32.674558	0.000649	6.486455	1.098835	0.000130
1953	1.9422e+02	-1.1148	-32.533258	0.000709	7.094560	1.201851	0.000142
1954	1.9432e+02	-1.0950	-32.404070	0.000649	6.486455	1.098835	0.000130
1955	1.9442e+02	-1.0742	-32.270845	0.000669	6.689157	1.133174	0.000134
1956	1.9452e+02	-1.0551	-32.165879	0.000527	5.270245	0.892804	0.000105
1957	1.9462e+02	-1.0358	-31.976134	0.000953	9.526981	1.613914	0.000191
1958	1.9472e+02	-1.0149	-31.855020	0.000608	6.081051	1.030158	0.000122
1959	1.9482e+02	-0.9961	-31.725831	0.000649	6.486455	1.098835	0.000130
1960	1.9492e+02	-0.9752	-31.604717	0.000608	6.081051	1.030158	0.000122
1961	1.9502e+02	-0.9557	-31.471492	0.000669	6.689157	1.133174	0.000134
1962	1.9512e+02	-0.9361	-31.322118	0.000750	7.499964	1.270528	0.000150
1963	1.9522e+02	-0.9157	-31.225226	0.000486	4.864841	0.824126	0.000097
1964	1.9532e+02	-0.8950	-31.055667	0.000851	8.513472	1.442221	0.000170
1965	1.9542e+02	-0.8763	-30.894181	0.000811	8.108069	1.373544	0.000162
1966	1.9552e+02	-0.8563	-30.785179	0.000547	5.472946	0.927142	0.000110
1967	1.9562e+02	-0.8361	-30.643879	0.000709	7.094560	1.201851	0.000142
1968	1.9572e+02	-0.8153	-30.522765	0.000608	6.081051	1.030158	0.000122
1969	1.9582e+02	-0.7958	-30.361279	0.000811	8.108069	1.373544	0.000162
1970	1.9592e+02	-0.7761	-30.264388	0.000486	4.864841	0.824126	0.000097
1971	1.9601e+02	-0.7565	-30.106940	0.000791	7.905367	1.339205	0.000158
1972	1.9611e+02	-0.7368	-29.957566	0.000750	7.499964	1.270528	0.000150
1973	1.9621e+02	-0.7164	-29.816266	0.000709	7.094560	1.201851	0.000142
1974	1.9631e+02	-0.6966	-29.650743	0.000831	8.310770	1.407883	0.000166
1975	1.9641e+02	-0.6766	-29.557889	0.000466	4.662139	0.789788	0.000093
1976	1.9651e+02	-0.6559	-29.384292	0.000872	8.716174	1.476560	0.000174
1977	1.9661e+02	-0.6364	-29.271253	0.000568	5.675648	0.961481	0.000114
1978	1.9671e+02	-0.6165	-29.133990	0.000689	6.891858	1.167512	0.000138
1979	1.9681e+02	-0.5968	-28.992690	0.000709	7.094560	1.201851	0.000142
1980	1.9691e+02	-0.5765	-28.823131	0.000851	8.513472	1.442221	0.000170
1981	1.9701e+02	-0.5568	-28.697979	0.000628	6.283753	1.064497	0.000126
1982	1.9711e+02	-0.5375	-28.552643	0.000730	7.297262	1.236190	0.000146
1983	1.9721e+02	-0.5173	-28.419417	0.000669	6.689157	1.133174	0.000134
1984	1.9731e+02	-0.4984	-28.274080	0.000730	7.297262	1.236190	0.000146
1985	1.9741e+02	-0.4772	-28.128743	0.000730	7.297262	1.236190	0.000146
1986	1.9751e+02	-0.4571	-28.003592	0.000628	6.283753	1.064497	0.000126
1987	1.9761e+02	-0.4376	-27.829995	0.000872	8.716174	1.476560	0.000174
1988	1.9771e+02	-0.4166	-27.676584	0.000770	7.702665	1.304867	0.000154
1989	1.9781e+02	-0.3974	-27.559507	0.000588	5.878350	0.995819	0.000118
1990	1.9791e+02	-0.3777	-27.410133	0.000750	7.499964	1.270528	0.000150
1991	1.9800e+02	-0.3574	-27.248648	0.000811	8.108069	1.373544	0.000162
1992	1.9810e+02	-0.3380	-27.143682	0.000527	5.270245	0.892804	0.000105
1993	1.9820e+02	-0.3180	-26.998345	0.000730	7.297262	1.236190	0.000146
1994	1.9830e+02	-0.2976	-26.857045	0.000709	7.094560	1.201851	0.000142
1995	1.9840e+02	-0.2783	-26.719783	0.000689	6.891858	1.167512	0.000138
1996	1.9850e+02	-0.2580	-26.574446	0.000730	7.297262	1.236190	0.000146
1997	1.9860e+02	-0.2384	-26.412961	0.000811	8.108069	1.373544	0.000162
1998	1.9870e+02	-0.2184	-26.287809	0.000628	6.283753	1.064497	0.000126
1999	1.9880e+02	-0.1978	-26.126324	0.000811	8.108069	1.373544	0.000162
2000	1.9890e+02	-0.1781	-26.013284	0.000568	5.675648	0.961481	0.000114
2001	1.9900e+02	-0.1595	-25.855836	0.000791	7.905367	1.339205	0.000158
2002	1.9910e+02	-0.1381	-25.722610	0.000669	6.689157	1.133174	0.000134
2003	1.9920e+02	-0.1186	-25.581311	0.000709	7.094560	1.201851	0.000142
2004	1.9930e+02	-0.0990	-25.444048	0.000689	6.891858	1.167512	0.000138
2005	1.9940e+02	-0.0789	-25.270451	0.000872	8.716174	1.476560	0.000174
2006	1.9950e+02	-0.0587	-25.157411	0.000568	5.675648	0.961481	0.000114
2007	1.9960e+02	-0.0385	-25.016112	0.000709	7.094560	1.201851	0.000142
2008	1.9970e+02	-0.0195	-24.903072	0.000568	5.675648	0.961481	0.000114
2009	1.9980e+02	-0.0010	-24.761772	0.000568	5.675648	0.961481	0.000142

PMax (uC/cm2):	5.97e+01
Pr (uC/cm2):	6.15e+00
-Pr (uC/cm2):	-3.55e+01
PLoss (uC/cm2):	-3.55e+01
-Vc:	-8.86e-01
C (Max-Eff) (nF):	5.97e-01
K (Eff):	1.01e+03
Vert. (+/-Pr) Shift (uC/cm2):	-1.47e+01
Offset (uC/cm2):	-1.08e+01

A (Loop Area - uC/cm2·Volts):	-1.22e-01



Hysteresis Version: 5.48.1 - Radiant Technologies, Inc., 1999 - 9/12/24

