»»»»»»»»»»»»»»»»»»»»»»»»»»»»»»»»»»»» Hysteresis ««««««««««««««««««««««««««««««««««««
»»»  Executed Version:	5.48.1
»»»  Vision Version:	5.48.4 (R)
»»»  Vision Compiled:	9/18/24
»»»  Driver Version:	5.47.0
»»»  Windows Version:	Windows 8 or 8.1
»»»  Processor Information:	x86 (AMD or Intel) - 32 Processors
»»»  Tester Name:	PMF21124-494 (100V)
»»»  Tester S/N:	PMF21124-494
»»»  Internal Amp Type:	100V RevK 270k
»»»  Internal Amp S/N:	iAB2-596/K     
»»»  Execution Count:	1
»»»»»»»»»»»»»»»»»»»»»»»»»»»»»»»»»»»»»»»»»»««««««««««««««««««««««««««««««««««««««««««

Stored:	7/7/2025 - 15:20:20
Configured:	07/07/25 01:27:50 PM
Executed:	07/07/25 03:19:53 PM

»»»»»»»»»»»»»»»»»»»»»»»»»»»»»»»»»»» Sample Info ««««««««««««««««««««««««««««««««««««
Sample Name:	
Lot Name:	
Wafer Name:	
Die Row/Column:	0/0
Capacitor Number:	0
Sample Area (cm2):	1.00e-04
Sample Thickness (microns):	1.50e-01

Amplifier:	Internal

»»»»»»»»»»»»»»»»»»»»»»»»»»»»»»»»»»» Tester Info «««««««««««««««««««««««««««««««««««
Tester Name:	PMF21124-494 (100V)
Tester Serial Number:	PMF21124-494
Return Signal Amp. Level:	0.19 [Index: 3]

»»»»»»»»»»»»»»»»»»»»»»»»»»»»»»»» Hysteresis Info ««««««««««««««««««««««««««««««««««
Task Name:	Hyst-528
Volts:	10.00
Field:	666.67 (kV/cm)
DCBias:	0.00
DCField:	0.00 (kV/cm)
Hysteresis Period (ms):	2.00e+02
Preset:	Enabled
Preset Delay (ms):	1.00e+03
Profile:	Standard Bipolar

»»»»»»»»»»»»»»»»»»»»»»»»»»»»»»»»»»»»»» Data «««««««««««««««««««««««««««««««««««««««
Points:	2009

Valid Data

Point	Time (ms)	Drive Voltage	Measured Polarization (uC/cm2)	Capacitance (uF)	Normalized Capacitance (uF/cm2)	Dielectric Constant	Instantaneous Current (mA)
   1	0.0000e+00	-0.0002	28.132780	0.000365	3.648499	0.618072	0.000073
   2	9.9500e-02	0.0195	28.205449	0.000365	3.648499	0.618072	0.000073
   3	1.9900e-01	0.0388	28.354823	0.000750	7.499692	1.270482	0.000150
   4	2.9850e-01	0.0581	28.455751	0.000507	5.067359	0.858434	0.000101
   5	3.9800e-01	0.0787	28.593014	0.000689	6.891609	1.167470	0.000138
   6	4.9750e-01	0.0986	28.661645	0.000345	3.445804	0.583735	0.000069
   7	5.9700e-01	0.1185	28.782759	0.000608	6.080831	1.030121	0.000122
   8	6.9650e-01	0.1387	28.920022	0.000689	6.891609	1.167470	0.000138
   9	7.9600e-01	0.1589	29.012876	0.000466	4.661970	0.789759	0.000093
  10	8.9550e-01	0.1781	29.170324	0.000791	7.905080	1.339157	0.000158
  11	9.9500e-01	0.1986	29.287401	0.000588	5.878137	0.995783	0.000118
  12	1.0945e+00	0.2182	29.368144	0.000405	4.053887	0.686747	0.000081
  13	1.1940e+00	0.2396	29.513481	0.000730	7.296997	1.236145	0.000146
  14	1.2935e+00	0.2585	29.642669	0.000649	6.486220	1.098795	0.000130
  15	1.3930e+00	0.2783	29.739560	0.000486	4.864665	0.824097	0.000097
  16	1.4925e+00	0.2985	29.888934	0.000750	7.499692	1.270482	0.000150
  17	1.5920e+00	0.3187	29.993900	0.000527	5.270054	0.892771	0.000105
  18	1.6915e+00	0.3375	30.167497	0.000872	8.715858	1.476506	0.000174
  19	1.7910e+00	0.3577	30.219980	0.000264	2.635027	0.446386	0.000053
  20	1.8905e+00	0.3781	30.341094	0.000608	6.080831	1.030121	0.000122
  21	1.9900e+00	0.3980	30.514690	0.000872	8.715858	1.476506	0.000174
  22	2.0895e+00	0.4179	30.591396	0.000385	3.851193	0.652410	0.000077
  23	2.1890e+00	0.4371	30.704436	0.000568	5.675442	0.961446	0.000114
  24	2.2885e+00	0.4575	30.865921	0.000811	8.107775	1.373494	0.000162
  25	2.3880e+00	0.4777	30.962813	0.000486	4.864665	0.824097	0.000097
  26	2.4875e+00	0.4980	31.092001	0.000649	6.486220	1.098795	0.000130
  27	2.5870e+00	0.5178	31.237338	0.000730	7.296997	1.236145	0.000146
  28	2.6865e+00	0.5381	31.318080	0.000405	4.053887	0.686747	0.000081
  29	2.7860e+00	0.5570	31.463417	0.000730	7.296997	1.236145	0.000146
  30	2.8855e+00	0.5765	31.564346	0.000507	5.067359	0.858434	0.000101
  31	2.9850e+00	0.5971	31.705646	0.000709	7.094303	1.201807	0.000142
  32	3.0845e+00	0.6170	31.850982	0.000730	7.296997	1.236145	0.000146
  33	3.1840e+00	0.6372	31.964022	0.000568	5.675442	0.961446	0.000114
  34	3.2835e+00	0.6567	32.085136	0.000608	6.080831	1.030121	0.000122
  35	3.3830e+00	0.6770	32.198176	0.000568	5.675442	0.961446	0.000114
  36	3.4825e+00	0.6956	32.347550	0.000750	7.499692	1.270482	0.000150
  37	3.5820e+00	0.7172	32.488850	0.000709	7.094303	1.201807	0.000142
  38	3.6815e+00	0.7359	32.585741	0.000486	4.864665	0.824097	0.000097
  39	3.7810e+00	0.7569	32.718967	0.000669	6.688914	1.133133	0.000134
  40	3.8805e+00	0.7766	32.852192	0.000669	6.688914	1.133133	0.000134
  41	3.9800e+00	0.7963	32.973306	0.000608	6.080831	1.030121	0.000122
  42	4.0795e+00	0.8165	33.094420	0.000608	6.080831	1.030121	0.000122
  43	4.1790e+00	0.8358	33.235720	0.000709	7.094303	1.201807	0.000142
  44	4.2785e+00	0.8549	33.364908	0.000649	6.486220	1.098795	0.000130
  45	4.3780e+00	0.8765	33.490060	0.000628	6.283525	1.064458	0.000126
  46	4.4775e+00	0.8959	33.635396	0.000730	7.296997	1.236145	0.000146
  47	4.5770e+00	0.9156	33.728251	0.000466	4.661970	0.789759	0.000093
  48	4.6765e+00	0.9361	33.873587	0.000730	7.296997	1.236145	0.000146
  49	4.7760e+00	0.9554	33.970479	0.000486	4.864665	0.824097	0.000097
  50	4.8755e+00	0.9755	34.123890	0.000770	7.702386	1.304820	0.000154
  51	4.9750e+00	0.9962	34.245004	0.000608	6.080831	1.030121	0.000122
  52	5.0745e+00	1.0156	34.345932	0.000507	5.067359	0.858434	0.000101
  53	5.1740e+00	1.0354	34.515492	0.000851	8.513164	1.442169	0.000170
  54	5.2735e+00	1.0561	34.632569	0.000588	5.878137	0.995783	0.000118
  55	5.3730e+00	1.0759	34.753683	0.000608	6.080831	1.030121	0.000122
  56	5.4725e+00	1.0956	34.923243	0.000851	8.513164	1.442169	0.000170
  57	5.5720e+00	1.1156	35.003985	0.000405	4.053887	0.686747	0.000081
  58	5.6715e+00	1.1349	35.117025	0.000568	5.675442	0.961446	0.000114
  59	5.7710e+00	1.1556	35.258325	0.000709	7.094303	1.201807	0.000142
  60	5.8705e+00	1.1754	35.427885	0.000851	8.513164	1.442169	0.000170
  61	5.9700e+00	1.1948	35.492479	0.000324	3.243110	0.549398	0.000065
  62	6.0695e+00	1.2153	35.682224	0.000953	9.526635	1.613856	0.000191
  63	6.1690e+00	1.2348	35.779115	0.000486	4.864665	0.824097	0.000097
  64	6.2685e+00	1.2556	35.912341	0.000669	6.688914	1.133133	0.000134
  65	6.3680e+00	1.2740	36.045566	0.000669	6.688914	1.133133	0.000134
  66	6.4675e+00	1.2942	36.194940	0.000750	7.499692	1.270482	0.000150
  67	6.5670e+00	1.3133	36.271646	0.000385	3.851193	0.652410	0.000077
  68	6.6665e+00	1.3335	36.437169	0.000831	8.310469	1.407832	0.000166
  69	6.7660e+00	1.3543	36.574431	0.000689	6.891609	1.167470	0.000138
  70	6.8655e+00	1.3733	36.691508	0.000588	5.878137	0.995783	0.000118
  71	6.9650e+00	1.3931	36.840882	0.000750	7.499692	1.270482	0.000150
  72	7.0645e+00	1.4136	36.953922	0.000568	5.675442	0.961446	0.000114
  73	7.1640e+00	1.4333	37.119445	0.000831	8.310469	1.407832	0.000166
  74	7.2635e+00	1.4526	37.276893	0.000791	7.905080	1.339157	0.000158
  75	7.3630e+00	1.4732	37.385896	0.000547	5.472748	0.927109	0.000110
  76	7.4625e+00	1.4935	37.555455	0.000851	8.513164	1.442169	0.000170
  77	7.5620e+00	1.5136	37.676569	0.000608	6.080831	1.030121	0.000122
  78	7.6615e+00	1.5329	37.785572	0.000547	5.472748	0.927109	0.000110
  79	7.7610e+00	1.5530	37.934946	0.000750	7.499692	1.270482	0.000150
  80	7.8605e+00	1.5736	38.052023	0.000588	5.878137	0.995783	0.000118
  81	7.9600e+00	1.5928	38.169100	0.000588	5.878137	0.995783	0.000118
  82	8.0595e+00	1.6108	38.314437	0.000730	7.296997	1.236145	0.000146
  83	8.1590e+00	1.6326	38.447662	0.000669	6.688914	1.133133	0.000134
  84	8.2585e+00	1.6523	38.584925	0.000689	6.891609	1.167470	0.000138
  85	8.3580e+00	1.6728	38.697965	0.000568	5.675442	0.961446	0.000114
  86	8.4575e+00	1.6920	38.867524	0.000851	8.513164	1.442169	0.000170
  87	8.5570e+00	1.7123	38.992676	0.000628	6.283525	1.064458	0.000126
  88	8.6565e+00	1.7325	39.129938	0.000689	6.891609	1.167470	0.000138
  89	8.7560e+00	1.7526	39.251052	0.000608	6.080831	1.030121	0.000122
  90	8.8555e+00	1.7721	39.396389	0.000730	7.296997	1.236145	0.000146
  91	8.9550e+00	1.7910	39.557875	0.000811	8.107775	1.373494	0.000162
  92	9.0545e+00	1.8124	39.703211	0.000730	7.296997	1.236145	0.000146
  93	9.1540e+00	1.8314	39.844511	0.000709	7.094303	1.201807	0.000142
  94	9.2535e+00	1.8521	39.981774	0.000689	6.891609	1.167470	0.000138
  95	9.3530e+00	1.8720	40.102888	0.000608	6.080831	1.030121	0.000122
  96	9.4525e+00	1.8916	40.280522	0.000892	8.918552	1.510844	0.000179
  97	9.5520e+00	1.9126	40.413747	0.000669	6.688914	1.133133	0.000134
  98	9.6515e+00	1.9312	40.478341	0.000324	3.243110	0.549398	0.000065
  99	9.7510e+00	1.9521	40.668087	0.000953	9.526635	1.613856	0.000191
 100	9.8505e+00	1.9718	40.793238	0.000628	6.283525	1.064458	0.000126
 101	9.9500e+00	1.9917	40.914352	0.000608	6.080831	1.030121	0.000122
 102	1.0050e+01	2.0109	41.091986	0.000892	8.918552	1.510844	0.000179
 103	1.0149e+01	2.0316	41.229249	0.000689	6.891609	1.167470	0.000138
 104	1.0248e+01	2.0511	41.314029	0.000426	4.256582	0.721084	0.000085
 105	1.0348e+01	2.0708	41.467440	0.000770	7.702386	1.304820	0.000154
 106	1.0447e+01	2.0899	41.588554	0.000608	6.080831	1.030121	0.000122
 107	1.0547e+01	2.1108	41.746002	0.000791	7.905080	1.339157	0.000158
 108	1.0646e+01	2.1306	41.871153	0.000628	6.283525	1.064458	0.000126
 109	1.0746e+01	2.1513	42.068973	0.000993	9.932024	1.682530	0.000199
 110	1.0845e+01	2.1707	42.169901	0.000507	5.067359	0.858434	0.000101
 111	1.0945e+01	2.1907	42.303127	0.000669	6.688914	1.133133	0.000134
 112	1.1044e+01	2.2112	42.428278	0.000628	6.283525	1.064458	0.000126
 113	1.1144e+01	2.2298	42.525169	0.000486	4.864665	0.824097	0.000097
 114	1.1243e+01	2.2509	42.702803	0.000892	8.918552	1.510844	0.000179
 115	1.1343e+01	2.2698	42.856214	0.000770	7.702386	1.304820	0.000154
 116	1.1443e+01	2.2903	42.949069	0.000466	4.661970	0.789759	0.000093
 117	1.1542e+01	2.3097	43.102480	0.000770	7.702386	1.304820	0.000154
 118	1.1642e+01	2.3307	43.235705	0.000669	6.688914	1.133133	0.000134
 119	1.1741e+01	2.3504	43.352782	0.000588	5.878137	0.995783	0.000118
 120	1.1841e+01	2.3696	43.498119	0.000730	7.296997	1.236145	0.000146
 121	1.1940e+01	2.3903	43.667679	0.000851	8.513164	1.442169	0.000170
 122	1.2040e+01	2.4110	43.813016	0.000730	7.296997	1.236145	0.000146
 123	1.2139e+01	2.4302	43.942204	0.000649	6.486220	1.098795	0.000130
 124	1.2239e+01	2.4503	44.055244	0.000568	5.675442	0.961446	0.000114
 125	1.2338e+01	2.4704	44.196543	0.000709	7.094303	1.201807	0.000142
 126	1.2438e+01	2.4900	44.321695	0.000628	6.283525	1.064458	0.000126
 127	1.2537e+01	2.5098	44.483180	0.000811	8.107775	1.373494	0.000162
 128	1.2636e+01	2.5292	44.584109	0.000507	5.067359	0.858434	0.000101
 129	1.2736e+01	2.5498	44.713297	0.000649	6.486220	1.098795	0.000130
 130	1.2835e+01	2.5686	44.890931	0.000892	8.918552	1.510844	0.000179
 131	1.2935e+01	2.5890	45.016082	0.000628	6.283525	1.064458	0.000126
 132	1.3034e+01	2.6089	45.129122	0.000568	5.675442	0.961446	0.000114
 133	1.3134e+01	2.6292	45.282533	0.000770	7.702386	1.304820	0.000154
 134	1.3233e+01	2.6483	45.435944	0.000770	7.702386	1.304820	0.000154
 135	1.3333e+01	2.6688	45.544947	0.000547	5.472748	0.927109	0.000110
 136	1.3432e+01	2.6891	45.637801	0.000466	4.661970	0.789759	0.000093
 137	1.3532e+01	2.7085	45.823509	0.000932	9.323941	1.579518	0.000187
 138	1.3632e+01	2.7280	45.968846	0.000730	7.296997	1.236145	0.000146
 139	1.3731e+01	2.7477	46.126294	0.000791	7.905080	1.339157	0.000158
 140	1.3831e+01	2.7689	46.255483	0.000649	6.486220	1.098795	0.000130
 141	1.3930e+01	2.7888	46.376597	0.000608	6.080831	1.030121	0.000122
 142	1.4030e+01	2.8072	46.477525	0.000507	5.067359	0.858434	0.000101
 143	1.4129e+01	2.8277	46.618825	0.000709	7.094303	1.201807	0.000142
 144	1.4229e+01	2.8497	46.760125	0.000709	7.094303	1.201807	0.000142
 145	1.4328e+01	2.8673	46.929684	0.000851	8.513164	1.442169	0.000170
 146	1.4428e+01	2.8877	47.079058	0.000750	7.499692	1.270482	0.000150
 147	1.4527e+01	2.9073	47.159801	0.000405	4.053887	0.686747	0.000081
 148	1.4627e+01	2.9279	47.325324	0.000831	8.310469	1.407832	0.000166
 149	1.4726e+01	2.9473	47.426252	0.000507	5.067359	0.858434	0.000101
 150	1.4825e+01	2.9671	47.591775	0.000831	8.310469	1.407832	0.000166
 151	1.4925e+01	2.9876	47.704814	0.000568	5.675442	0.961446	0.000114
 152	1.5024e+01	3.0077	47.874374	0.000851	8.513164	1.442169	0.000170
 153	1.5124e+01	3.0276	47.955117	0.000405	4.053887	0.686747	0.000081
 154	1.5223e+01	3.0468	48.108528	0.000770	7.702386	1.304820	0.000154
 155	1.5323e+01	3.0676	48.245791	0.000689	6.891609	1.167470	0.000138
 156	1.5422e+01	3.0871	48.350756	0.000527	5.270054	0.892771	0.000105
 157	1.5522e+01	3.1074	48.492056	0.000709	7.094303	1.201807	0.000142
 158	1.5621e+01	3.1271	48.653541	0.000811	8.107775	1.373494	0.000162
 159	1.5721e+01	3.1467	48.750433	0.000486	4.864665	0.824097	0.000097
 160	1.5820e+01	3.1667	48.859435	0.000547	5.472748	0.927109	0.000110
 161	1.5920e+01	3.1861	49.028995	0.000851	8.513164	1.442169	0.000170
 162	1.6020e+01	3.2070	49.129923	0.000507	5.067359	0.858434	0.000101
 163	1.6119e+01	3.2262	49.255075	0.000628	6.283525	1.064458	0.000126
 164	1.6218e+01	3.2460	49.392337	0.000689	6.891609	1.167470	0.000138
 165	1.6318e+01	3.2663	49.574008	0.000912	9.121247	1.545181	0.000183
 166	1.6418e+01	3.2861	49.691085	0.000588	5.878137	0.995783	0.000118
 167	1.6517e+01	3.3064	49.767791	0.000385	3.851193	0.652410	0.000077
 168	1.6616e+01	3.3256	49.921202	0.000770	7.702386	1.304820	0.000154
 169	1.6716e+01	3.3466	50.054427	0.000669	6.688914	1.133133	0.000134
 170	1.6816e+01	3.3657	50.171504	0.000588	5.878137	0.995783	0.000118
 171	1.6915e+01	3.3859	50.316841	0.000730	7.296997	1.236145	0.000146
 172	1.7015e+01	3.4061	50.417770	0.000507	5.067359	0.858434	0.000101
 173	1.7114e+01	3.4256	50.575218	0.000791	7.905080	1.339157	0.000158
 174	1.7213e+01	3.4454	50.684221	0.000547	5.472748	0.927109	0.000110
 175	1.7313e+01	3.4657	50.841669	0.000791	7.905080	1.339157	0.000158
 176	1.7413e+01	3.4869	50.958746	0.000588	5.878137	0.995783	0.000118
 177	1.7512e+01	3.5064	51.051600	0.000466	4.661970	0.789759	0.000093
 178	1.7611e+01	3.5252	51.245382	0.000973	9.729330	1.648193	0.000195
 179	1.7711e+01	3.5450	51.318051	0.000365	3.648499	0.618072	0.000073
 180	1.7811e+01	3.5652	51.467425	0.000750	7.499692	1.270482	0.000150
 181	1.7910e+01	3.5853	51.580465	0.000568	5.675442	0.961446	0.000114
 182	1.8009e+01	3.6047	51.721765	0.000709	7.094303	1.201807	0.000142
 183	1.8109e+01	3.6246	51.850953	0.000649	6.486220	1.098795	0.000130
 184	1.8209e+01	3.6448	51.972067	0.000608	6.080831	1.030121	0.000122
 185	1.8308e+01	3.6654	52.125478	0.000770	7.702386	1.304820	0.000154
 186	1.8407e+01	3.6855	52.242555	0.000588	5.878137	0.995783	0.000118
 187	1.8507e+01	3.7049	52.343483	0.000507	5.067359	0.858434	0.000101
 188	1.8607e+01	3.7252	52.444412	0.000507	5.067359	0.858434	0.000101
 189	1.8706e+01	3.7450	52.601860	0.000791	7.905080	1.339157	0.000158
 190	1.8805e+01	3.7643	52.771420	0.000851	8.513164	1.442169	0.000170
 191	1.8905e+01	3.7848	52.872348	0.000507	5.067359	0.858434	0.000101
 192	1.9005e+01	3.8042	53.005574	0.000669	6.688914	1.133133	0.000134
 193	1.9104e+01	3.8239	53.118613	0.000568	5.675442	0.961446	0.000114
 194	1.9203e+01	3.8441	53.263950	0.000730	7.296997	1.236145	0.000146
 195	1.9303e+01	3.8641	53.360842	0.000486	4.864665	0.824097	0.000097
 196	1.9402e+01	3.8840	53.518290	0.000791	7.905080	1.339157	0.000158
 197	1.9502e+01	3.9040	53.619218	0.000507	5.067359	0.858434	0.000101
 198	1.9602e+01	3.9240	53.752444	0.000669	6.688914	1.133133	0.000134
 199	1.9701e+01	3.9437	53.913929	0.000811	8.107775	1.373494	0.000162
 200	1.9800e+01	3.9640	53.998709	0.000426	4.256582	0.721084	0.000085
 201	1.9900e+01	3.9836	54.152120	0.000770	7.702386	1.304820	0.000154
 202	2.0000e+01	4.0035	54.297457	0.000730	7.296997	1.236145	0.000146
 203	2.0099e+01	4.0231	54.414534	0.000588	5.878137	0.995783	0.000118
 204	2.0198e+01	4.0430	54.539685	0.000628	6.283525	1.064458	0.000126
 205	2.0298e+01	4.0635	54.620428	0.000405	4.053887	0.686747	0.000081
 206	2.0398e+01	4.0827	54.769802	0.000750	7.499692	1.270482	0.000150
 207	2.0497e+01	4.1029	54.951473	0.000912	9.121247	1.545181	0.000183
 208	2.0596e+01	4.1233	55.020104	0.000345	3.445804	0.583735	0.000069
 209	2.0696e+01	4.1435	55.137181	0.000588	5.878137	0.995783	0.000118
 210	2.0796e+01	4.1631	55.290593	0.000770	7.702386	1.304820	0.000154
 211	2.0895e+01	4.1821	55.415744	0.000628	6.283525	1.064458	0.000126
 212	2.0994e+01	4.2025	55.548969	0.000669	6.688914	1.133133	0.000134
 213	2.1094e+01	4.2219	55.625675	0.000385	3.851193	0.652410	0.000077
 214	2.1194e+01	4.2432	55.807346	0.000912	9.121247	1.545181	0.000183
 215	2.1293e+01	4.2636	55.908274	0.000507	5.067359	0.858434	0.000101
 216	2.1392e+01	4.2825	56.037463	0.000649	6.486220	1.098795	0.000130
 217	2.1492e+01	4.3020	56.186837	0.000750	7.499692	1.270482	0.000150
 218	2.1591e+01	4.3227	56.303914	0.000588	5.878137	0.995783	0.000118
 219	2.1691e+01	4.3421	56.400805	0.000486	4.864665	0.824097	0.000097
 220	2.1791e+01	4.3607	56.517882	0.000588	5.878137	0.995783	0.000118
 221	2.1890e+01	4.3830	56.667256	0.000750	7.499692	1.270482	0.000150
 222	2.1989e+01	4.4018	56.784333	0.000588	5.878137	0.995783	0.000118
 223	2.2089e+01	4.4210	56.901410	0.000588	5.878137	0.995783	0.000118
 224	2.2189e+01	4.4410	57.030598	0.000649	6.486220	1.098795	0.000130
 225	2.2288e+01	4.4618	57.147675	0.000588	5.878137	0.995783	0.000118
 226	2.2387e+01	4.4820	57.276863	0.000649	6.486220	1.098795	0.000130
 227	2.2487e+01	4.5013	57.402014	0.000628	6.283525	1.064458	0.000126
 228	2.2587e+01	4.5214	57.506980	0.000527	5.270054	0.892771	0.000105
 229	2.2686e+01	4.5415	57.624057	0.000588	5.878137	0.995783	0.000118
 230	2.2785e+01	4.5619	57.781505	0.000791	7.905080	1.339157	0.000158
 231	2.2885e+01	4.5820	57.890508	0.000547	5.472748	0.927109	0.000110
 232	2.2985e+01	4.6016	58.003548	0.000568	5.675442	0.961446	0.000114
 233	2.3084e+01	4.6207	58.120625	0.000588	5.878137	0.995783	0.000118
 234	2.3183e+01	4.6410	58.225590	0.000527	5.270054	0.892771	0.000105
 235	2.3283e+01	4.6613	58.370927	0.000730	7.296997	1.236145	0.000146
 236	2.3383e+01	4.6815	58.488004	0.000588	5.878137	0.995783	0.000118
 237	2.3482e+01	4.7011	58.653527	0.000831	8.310469	1.407832	0.000166
 238	2.3581e+01	4.7208	58.750418	0.000486	4.864665	0.824097	0.000097
 239	2.3681e+01	4.7408	58.867495	0.000588	5.878137	0.995783	0.000118
 240	2.3780e+01	4.7613	58.968423	0.000507	5.067359	0.858434	0.000101
 241	2.3880e+01	4.7808	59.089537	0.000608	6.080831	1.030121	0.000122
 242	2.3980e+01	4.8005	59.230837	0.000709	7.094303	1.201807	0.000142
 243	2.4079e+01	4.8205	59.376174	0.000730	7.296997	1.236145	0.000146
 244	2.4178e+01	4.8392	59.481139	0.000527	5.270054	0.892771	0.000105
 245	2.4278e+01	4.8598	59.614365	0.000669	6.688914	1.133133	0.000134
 246	2.4378e+01	4.8798	59.682996	0.000345	3.445804	0.583735	0.000069
 247	2.4477e+01	4.9001	59.844482	0.000811	8.107775	1.373494	0.000162
 248	2.4576e+01	4.9204	59.949447	0.000527	5.270054	0.892771	0.000105
 249	2.4676e+01	4.9403	60.102858	0.000770	7.702386	1.304820	0.000154
 250	2.4776e+01	4.9603	60.223972	0.000608	6.080831	1.030121	0.000122
 251	2.4875e+01	4.9802	60.337012	0.000568	5.675442	0.961446	0.000114
 252	2.4974e+01	5.0005	60.466201	0.000649	6.486220	1.098795	0.000130
 253	2.5074e+01	5.0189	60.595389	0.000649	6.486220	1.098795	0.000130
 254	2.5174e+01	5.0391	60.684206	0.000446	4.459276	0.755422	0.000089
 255	2.5273e+01	5.0594	60.853766	0.000851	8.513164	1.442169	0.000170
 256	2.5372e+01	5.0791	60.926434	0.000365	3.648499	0.618072	0.000073
 257	2.5472e+01	5.0992	61.079845	0.000770	7.702386	1.304820	0.000154
 258	2.5572e+01	5.1189	61.196922	0.000588	5.878137	0.995783	0.000118
 259	2.5671e+01	5.1388	61.305925	0.000547	5.472748	0.927109	0.000110
 260	2.5770e+01	5.1585	61.455299	0.000750	7.499692	1.270482	0.000150
 261	2.5870e+01	5.1802	61.572376	0.000588	5.878137	0.995783	0.000118
 262	2.5970e+01	5.1994	61.709638	0.000689	6.891609	1.167470	0.000138
 263	2.6069e+01	5.2184	61.806530	0.000486	4.864665	0.824097	0.000097
 264	2.6169e+01	5.2386	61.959941	0.000770	7.702386	1.304820	0.000154
 265	2.6268e+01	5.2586	62.068943	0.000547	5.472748	0.927109	0.000110
 266	2.6367e+01	5.2776	62.194095	0.000628	6.283525	1.064458	0.000126
 267	2.6467e+01	5.2981	62.311172	0.000588	5.878137	0.995783	0.000118
 268	2.6567e+01	5.3167	62.444397	0.000669	6.688914	1.133133	0.000134
 269	2.6666e+01	5.3382	62.549363	0.000527	5.270054	0.892771	0.000105
 270	2.6765e+01	5.3576	62.642217	0.000466	4.661970	0.789759	0.000093
 271	2.6865e+01	5.3765	62.775442	0.000669	6.688914	1.133133	0.000134
 272	2.6965e+01	5.3979	62.912705	0.000689	6.891609	1.167470	0.000138
 273	2.7064e+01	5.4172	63.017670	0.000527	5.270054	0.892771	0.000105
 274	2.7163e+01	5.4375	63.130710	0.000568	5.675442	0.961446	0.000114
 275	2.7263e+01	5.4580	63.255861	0.000628	6.283525	1.064458	0.000126
 276	2.7363e+01	5.4778	63.381013	0.000628	6.283525	1.064458	0.000126
 277	2.7462e+01	5.4969	63.473867	0.000466	4.661970	0.789759	0.000093
 278	2.7561e+01	5.5178	63.590944	0.000588	5.878137	0.995783	0.000118
 279	2.7661e+01	5.5383	63.720132	0.000649	6.486220	1.098795	0.000130
 280	2.7761e+01	5.5575	63.825097	0.000527	5.270054	0.892771	0.000105
 281	2.7860e+01	5.5767	63.958323	0.000669	6.688914	1.133133	0.000134
 282	2.7959e+01	5.5972	64.123845	0.000831	8.310469	1.407832	0.000166
 283	2.8059e+01	5.6167	64.184403	0.000304	3.040416	0.515060	0.000061
 284	2.8159e+01	5.6365	64.321665	0.000689	6.891609	1.167470	0.000138
 285	2.8258e+01	5.6578	64.394334	0.000365	3.648499	0.618072	0.000073
 286	2.8358e+01	5.6771	64.551782	0.000791	7.905080	1.339157	0.000158
 287	2.8457e+01	5.6963	64.636562	0.000426	4.256582	0.721084	0.000085
 288	2.8556e+01	5.7168	64.781899	0.000730	7.296997	1.236145	0.000146
 289	2.8656e+01	5.7371	64.907050	0.000628	6.283525	1.064458	0.000126
 290	2.8756e+01	5.7561	64.979718	0.000365	3.648499	0.618072	0.000073
 291	2.8855e+01	5.7769	65.112944	0.000669	6.688914	1.133133	0.000134
 292	2.8954e+01	5.7960	65.221946	0.000547	5.472748	0.927109	0.000110
 293	2.9054e+01	5.8161	65.334986	0.000568	5.675442	0.961446	0.000114
 294	2.9154e+01	5.8359	65.472249	0.000689	6.891609	1.167470	0.000138
 295	2.9253e+01	5.8560	65.589326	0.000588	5.878137	0.995783	0.000118
 296	2.9352e+01	5.8767	65.698328	0.000547	5.472748	0.927109	0.000110
 297	2.9452e+01	5.8965	65.799257	0.000507	5.067359	0.858434	0.000101
 298	2.9552e+01	5.9159	65.948631	0.000750	7.499692	1.270482	0.000150
 299	2.9651e+01	5.9353	66.025336	0.000385	3.851193	0.652410	0.000077
 300	2.9750e+01	5.9563	66.158562	0.000669	6.688914	1.133133	0.000134
 301	2.9850e+01	5.9759	66.279676	0.000608	6.080831	1.030121	0.000122
 302	2.9950e+01	5.9959	66.372530	0.000466	4.661970	0.789759	0.000093
 303	3.0049e+01	6.0149	66.517867	0.000730	7.296997	1.236145	0.000146
 304	3.0148e+01	6.0355	66.630907	0.000568	5.675442	0.961446	0.000114
 305	3.0248e+01	6.0556	66.727798	0.000486	4.864665	0.824097	0.000097
 306	3.0348e+01	6.0754	66.832764	0.000527	5.270054	0.892771	0.000105
 307	3.0447e+01	6.0962	66.982138	0.000750	7.499692	1.270482	0.000150
 308	3.0547e+01	6.1156	67.074992	0.000466	4.661970	0.789759	0.000093
 309	3.0646e+01	6.1355	67.196106	0.000608	6.080831	1.030121	0.000122
 310	3.0745e+01	6.1552	67.305108	0.000547	5.472748	0.927109	0.000110
 311	3.0845e+01	6.1752	67.410074	0.000527	5.270054	0.892771	0.000105
 312	3.0945e+01	6.1944	67.531188	0.000608	6.080831	1.030121	0.000122
 313	3.1044e+01	6.2148	67.680562	0.000750	7.499692	1.270482	0.000150
 314	3.1143e+01	6.2348	67.773416	0.000466	4.661970	0.789759	0.000093
 315	3.1243e+01	6.2542	67.882419	0.000547	5.472748	0.927109	0.000110
 316	3.1343e+01	6.2745	67.967199	0.000426	4.256582	0.721084	0.000085
 317	3.1442e+01	6.2948	68.096387	0.000649	6.486220	1.098795	0.000130
 318	3.1541e+01	6.3131	68.177130	0.000405	4.053887	0.686747	0.000081
 319	3.1641e+01	6.3339	68.310355	0.000669	6.688914	1.133133	0.000134
 320	3.1741e+01	6.3534	68.411284	0.000507	5.067359	0.858434	0.000101
 321	3.1840e+01	6.3735	68.520286	0.000547	5.472748	0.927109	0.000110
 322	3.1939e+01	6.3935	68.641400	0.000608	6.080831	1.030121	0.000122
 323	3.2039e+01	6.4144	68.762514	0.000608	6.080831	1.030121	0.000122
 324	3.2139e+01	6.4336	68.871517	0.000547	5.472748	0.927109	0.000110
 325	3.2238e+01	6.4529	68.964371	0.000466	4.661970	0.789759	0.000093
 326	3.2337e+01	6.4730	69.093560	0.000649	6.486220	1.098795	0.000130
 327	3.2437e+01	6.4938	69.182377	0.000446	4.459276	0.755422	0.000089
 328	3.2536e+01	6.5139	69.295416	0.000568	5.675442	0.961446	0.000114
 329	3.2636e+01	6.5334	69.380196	0.000426	4.256582	0.721084	0.000085
 330	3.2736e+01	6.5524	69.509385	0.000649	6.486220	1.098795	0.000130
 331	3.2835e+01	6.5722	69.622424	0.000568	5.675442	0.961446	0.000114
 332	3.2934e+01	6.5923	69.715278	0.000466	4.661970	0.789759	0.000093
 333	3.3034e+01	6.6119	69.836393	0.000608	6.080831	1.030121	0.000122
 334	3.3133e+01	6.6323	69.917135	0.000405	4.053887	0.686747	0.000081
 335	3.3233e+01	6.6521	70.070546	0.000770	7.702386	1.304820	0.000154
 336	3.3333e+01	6.6717	70.151289	0.000405	4.053887	0.686747	0.000081
 337	3.3432e+01	6.6933	70.284515	0.000669	6.688914	1.133133	0.000134
 338	3.3532e+01	6.7120	70.349109	0.000324	3.243110	0.549398	0.000065
 339	3.3631e+01	6.7330	70.458111	0.000547	5.472748	0.927109	0.000110
 340	3.3730e+01	6.7516	70.583263	0.000628	6.283525	1.064458	0.000126
 341	3.3830e+01	6.7725	70.647857	0.000324	3.243110	0.549398	0.000065
 342	3.3929e+01	6.7920	70.760897	0.000568	5.675442	0.961446	0.000114
 343	3.4029e+01	6.8116	70.865862	0.000527	5.270054	0.892771	0.000105
 344	3.4129e+01	6.8317	70.974865	0.000547	5.472748	0.927109	0.000110
 345	3.4228e+01	6.8519	71.087905	0.000568	5.675442	0.961446	0.000114
 346	3.4328e+01	6.8722	71.184796	0.000486	4.864665	0.824097	0.000097
 347	3.4427e+01	6.8911	71.309947	0.000628	6.283525	1.064458	0.000126
 348	3.4526e+01	6.9112	71.394727	0.000426	4.256582	0.721084	0.000085
 349	3.4626e+01	6.9321	71.527952	0.000669	6.688914	1.133133	0.000134
 350	3.4725e+01	6.9521	71.632918	0.000527	5.270054	0.892771	0.000105
 351	3.4825e+01	6.9719	71.729809	0.000486	4.864665	0.824097	0.000097
 352	3.4925e+01	6.9906	71.838812	0.000547	5.472748	0.927109	0.000110
 353	3.5024e+01	7.0107	71.935703	0.000486	4.864665	0.824097	0.000097
 354	3.5123e+01	7.0320	72.020483	0.000426	4.256582	0.721084	0.000085
 355	3.5223e+01	7.0516	72.149671	0.000649	6.486220	1.098795	0.000130
 356	3.5322e+01	7.0707	72.218303	0.000345	3.445804	0.583735	0.000069
 357	3.5422e+01	7.0907	72.343454	0.000628	6.283525	1.064458	0.000126
 358	3.5522e+01	7.1110	72.452457	0.000547	5.472748	0.927109	0.000110
 359	3.5621e+01	7.1313	72.597793	0.000730	7.296997	1.236145	0.000146
 360	3.5721e+01	7.1499	72.670462	0.000365	3.648499	0.618072	0.000073
 361	3.5820e+01	7.1697	72.791576	0.000608	6.080831	1.030121	0.000122
 362	3.5919e+01	7.1909	72.904616	0.000568	5.675442	0.961446	0.000114
 363	3.6019e+01	7.2097	72.981321	0.000385	3.851193	0.652410	0.000077
 364	3.6118e+01	7.2292	73.094361	0.000568	5.675442	0.961446	0.000114
 365	3.6218e+01	7.2501	73.179141	0.000426	4.256582	0.721084	0.000085
 366	3.6318e+01	7.2705	73.320441	0.000709	7.094303	1.201807	0.000142
 367	3.6417e+01	7.2903	73.380998	0.000304	3.040416	0.515060	0.000061
 368	3.6517e+01	7.3104	73.506149	0.000628	6.283525	1.064458	0.000126
 369	3.6616e+01	7.3302	73.635337	0.000649	6.486220	1.098795	0.000130
 370	3.6715e+01	7.3499	73.744340	0.000547	5.472748	0.927109	0.000110
 371	3.6815e+01	7.3689	73.825083	0.000405	4.053887	0.686747	0.000081
 372	3.6914e+01	7.3891	73.897751	0.000365	3.648499	0.618072	0.000073
 373	3.7014e+01	7.4099	74.026939	0.000649	6.486220	1.098795	0.000130
 374	3.7114e+01	7.4301	74.139979	0.000568	5.675442	0.961446	0.000114
 375	3.7213e+01	7.4493	74.220722	0.000405	4.053887	0.686747	0.000081
 376	3.7313e+01	7.4686	74.353947	0.000669	6.688914	1.133133	0.000134
 377	3.7412e+01	7.4900	74.422579	0.000345	3.445804	0.583735	0.000069
 378	3.7511e+01	7.5088	74.503321	0.000405	4.053887	0.686747	0.000081
 379	3.7611e+01	7.5288	74.640584	0.000689	6.891609	1.167470	0.000138
 380	3.7711e+01	7.5492	74.741512	0.000507	5.067359	0.858434	0.000101
 381	3.7810e+01	7.5678	74.830329	0.000446	4.459276	0.755422	0.000089
 382	3.7910e+01	7.5898	74.955481	0.000628	6.283525	1.064458	0.000126
 383	3.8009e+01	7.6080	75.044298	0.000446	4.459276	0.755422	0.000089
 384	3.8108e+01	7.6290	75.169449	0.000628	6.283525	1.064458	0.000126
 385	3.8208e+01	7.6498	75.234043	0.000324	3.243110	0.549398	0.000065
 386	3.8307e+01	7.6685	75.334971	0.000507	5.067359	0.858434	0.000101
 387	3.8407e+01	7.6876	75.443974	0.000547	5.472748	0.927109	0.000110
 388	3.8507e+01	7.7080	75.569125	0.000628	6.283525	1.064458	0.000126
 389	3.8606e+01	7.7280	75.649868	0.000405	4.053887	0.686747	0.000081
 390	3.8706e+01	7.7471	75.734648	0.000426	4.256582	0.721084	0.000085
 391	3.8805e+01	7.7676	75.823465	0.000446	4.459276	0.755422	0.000089
 392	3.8904e+01	7.7885	75.984950	0.000811	8.107775	1.373494	0.000162
 393	3.9004e+01	7.8082	76.057619	0.000365	3.648499	0.618072	0.000073
 394	3.9103e+01	7.8275	76.146436	0.000446	4.459276	0.755422	0.000089
 395	3.9203e+01	7.8477	76.283698	0.000689	6.891609	1.167470	0.000138
 396	3.9303e+01	7.8678	76.384627	0.000507	5.067359	0.858434	0.000101
 397	3.9402e+01	7.8879	76.445184	0.000304	3.040416	0.515060	0.000061
 398	3.9502e+01	7.9072	76.602632	0.000791	7.905080	1.339157	0.000158
 399	3.9601e+01	7.9276	76.655115	0.000264	2.635027	0.446386	0.000053
 400	3.9700e+01	7.9473	76.752006	0.000486	4.864665	0.824097	0.000097
 401	3.9800e+01	7.9678	76.844860	0.000466	4.661970	0.789759	0.000093
 402	3.9900e+01	7.9870	76.957900	0.000568	5.675442	0.961446	0.000114
 403	3.9999e+01	8.0066	77.058828	0.000507	5.067359	0.858434	0.000101
 404	4.0099e+01	8.0266	77.135534	0.000385	3.851193	0.652410	0.000077
 405	4.0198e+01	8.0474	77.284908	0.000750	7.499692	1.270482	0.000150
 406	4.0297e+01	8.0664	77.341428	0.000284	2.837721	0.480723	0.000057
 407	4.0397e+01	8.0859	77.474653	0.000669	6.688914	1.133133	0.000134
 408	4.0496e+01	8.1071	77.563470	0.000446	4.459276	0.755422	0.000089
 409	4.0596e+01	8.1266	77.656324	0.000466	4.661970	0.789759	0.000093
 410	4.0696e+01	8.1457	77.745141	0.000446	4.459276	0.755422	0.000089
 411	4.0795e+01	8.1670	77.874330	0.000649	6.486220	1.098795	0.000130
 412	4.0895e+01	8.1879	77.987370	0.000568	5.675442	0.961446	0.000114
 413	4.0994e+01	8.2063	78.088298	0.000507	5.067359	0.858434	0.000101
 414	4.1093e+01	8.2270	78.169041	0.000405	4.053887	0.686747	0.000081
 415	4.1193e+01	8.2471	78.269969	0.000507	5.067359	0.858434	0.000101
 416	4.1292e+01	8.2658	78.370898	0.000507	5.067359	0.858434	0.000101
 417	4.1392e+01	8.2862	78.483937	0.000568	5.675442	0.961446	0.000114
 418	4.1492e+01	8.3057	78.609089	0.000628	6.283525	1.064458	0.000126
 419	4.1591e+01	8.3252	78.685794	0.000385	3.851193	0.652410	0.000077
 420	4.1691e+01	8.3451	78.831131	0.000730	7.296997	1.236145	0.000146
 421	4.1790e+01	8.3656	78.879577	0.000243	2.432332	0.412048	0.000049
 422	4.1889e+01	8.3854	79.020876	0.000709	7.094303	1.201807	0.000142
 423	4.1989e+01	8.4060	79.077396	0.000284	2.837721	0.480723	0.000057
 424	4.2089e+01	8.4251	79.238882	0.000811	8.107775	1.373494	0.000162
 425	4.2188e+01	8.4454	79.271179	0.000162	1.621555	0.274699	0.000032
 426	4.2288e+01	8.4653	79.404404	0.000669	6.688914	1.133133	0.000134
 427	4.2387e+01	8.4849	79.509370	0.000527	5.270054	0.892771	0.000105
 428	4.2486e+01	8.5043	79.618372	0.000547	5.472748	0.927109	0.000110
 429	4.2586e+01	8.5245	79.695078	0.000385	3.851193	0.652410	0.000077
 430	4.2685e+01	8.5451	79.840415	0.000730	7.296997	1.236145	0.000146
 431	4.2785e+01	8.5657	79.896935	0.000284	2.837721	0.480723	0.000057
 432	4.2885e+01	8.5852	80.005937	0.000547	5.472748	0.927109	0.000110
 433	4.2984e+01	8.6053	80.102829	0.000486	4.864665	0.824097	0.000097
 434	4.3084e+01	8.6240	80.219906	0.000588	5.878137	0.995783	0.000118
 435	4.3183e+01	8.6436	80.316797	0.000486	4.864665	0.824097	0.000097
 436	4.3282e+01	8.6637	80.385428	0.000345	3.445804	0.583735	0.000069
 437	4.3382e+01	8.6834	80.526728	0.000709	7.094303	1.201807	0.000142
 438	4.3481e+01	8.7049	80.595359	0.000345	3.445804	0.583735	0.000069
 439	4.3581e+01	8.7241	80.720511	0.000628	6.283525	1.064458	0.000126
 440	4.3681e+01	8.7438	80.829513	0.000547	5.472748	0.927109	0.000110
 441	4.3780e+01	8.7646	80.898144	0.000345	3.445804	0.583735	0.000069
 442	4.3880e+01	8.7834	81.031370	0.000669	6.688914	1.133133	0.000134
 443	4.3979e+01	8.8039	81.083853	0.000264	2.635027	0.446386	0.000053
 444	4.4078e+01	8.8237	81.188818	0.000527	5.270054	0.892771	0.000105
 445	4.4178e+01	8.8428	81.305895	0.000588	5.878137	0.995783	0.000118
 446	4.4278e+01	8.8629	81.422972	0.000588	5.878137	0.995783	0.000118
 447	4.4377e+01	8.8831	81.495641	0.000365	3.648499	0.618072	0.000073
 448	4.4477e+01	8.9036	81.612718	0.000588	5.878137	0.995783	0.000118
 449	4.4576e+01	8.9230	81.677312	0.000324	3.243110	0.549398	0.000065
 450	4.4675e+01	8.9423	81.786314	0.000547	5.472748	0.927109	0.000110
 451	4.4775e+01	8.9627	81.895317	0.000547	5.472748	0.927109	0.000110
 452	4.4874e+01	8.9828	82.000283	0.000527	5.270054	0.892771	0.000105
 453	4.4974e+01	9.0022	82.076988	0.000385	3.851193	0.652410	0.000077
 454	4.5074e+01	9.0219	82.202139	0.000628	6.283525	1.064458	0.000126
 455	4.5173e+01	9.0423	82.294993	0.000466	4.661970	0.789759	0.000093
 456	4.5273e+01	9.0617	82.416108	0.000608	6.080831	1.030121	0.000122
 457	4.5372e+01	9.0827	82.468590	0.000264	2.635027	0.446386	0.000053
 458	4.5471e+01	9.1019	82.553370	0.000426	4.256582	0.721084	0.000085
 459	4.5571e+01	9.1218	82.646224	0.000466	4.661970	0.789759	0.000093
 460	4.5670e+01	9.1424	82.803673	0.000791	7.905080	1.339157	0.000158
 461	4.5770e+01	9.1611	82.888452	0.000426	4.256582	0.721084	0.000085
 462	4.5870e+01	9.1819	82.965158	0.000385	3.851193	0.652410	0.000077
 463	4.5969e+01	9.2021	83.082235	0.000588	5.878137	0.995783	0.000118
 464	4.6069e+01	9.2211	83.175089	0.000466	4.661970	0.789759	0.000093
 465	4.6168e+01	9.2407	83.276017	0.000507	5.067359	0.858434	0.000101
 466	4.6267e+01	9.2603	83.372909	0.000486	4.864665	0.824097	0.000097
 467	4.6367e+01	9.2810	83.477874	0.000527	5.270054	0.892771	0.000105
 468	4.6467e+01	9.3018	83.534394	0.000284	2.837721	0.480723	0.000057
 469	4.6566e+01	9.3214	83.671657	0.000689	6.891609	1.167470	0.000138
 470	4.6666e+01	9.3408	83.740288	0.000345	3.445804	0.583735	0.000069
 471	4.6765e+01	9.3616	83.893699	0.000770	7.702386	1.304820	0.000154
 472	4.6864e+01	9.3809	83.962331	0.000345	3.445804	0.583735	0.000069
 473	4.6964e+01	9.4007	84.079407	0.000588	5.878137	0.995783	0.000118
 474	4.7063e+01	9.4208	84.156113	0.000385	3.851193	0.652410	0.000077
 475	4.7163e+01	9.4400	84.232819	0.000385	3.851193	0.652410	0.000077
 476	4.7263e+01	9.4601	84.345858	0.000568	5.675442	0.961446	0.000114
 477	4.7362e+01	9.4801	84.458898	0.000568	5.675442	0.961446	0.000114
 478	4.7462e+01	9.4996	84.543678	0.000426	4.256582	0.721084	0.000085
 479	4.7561e+01	9.5193	84.668829	0.000628	6.283525	1.064458	0.000126
 480	4.7660e+01	9.5390	84.729386	0.000304	3.040416	0.515060	0.000061
 481	4.7760e+01	9.5596	84.838389	0.000547	5.472748	0.927109	0.000110
 482	4.7859e+01	9.5802	84.963540	0.000628	6.283525	1.064458	0.000126
 483	4.7959e+01	9.5996	85.056394	0.000466	4.661970	0.789759	0.000093
 484	4.8059e+01	9.6182	85.133100	0.000385	3.851193	0.652410	0.000077
 485	4.8158e+01	9.6397	85.278437	0.000730	7.296997	1.236145	0.000146
 486	4.8258e+01	9.6595	85.343031	0.000324	3.243110	0.549398	0.000065
 487	4.8357e+01	9.6786	85.452034	0.000547	5.472748	0.927109	0.000110
 488	4.8456e+01	9.6987	85.581222	0.000649	6.486220	1.098795	0.000130
 489	4.8556e+01	9.7195	85.625630	0.000223	2.229638	0.377711	0.000045
 490	4.8656e+01	9.7384	85.726559	0.000507	5.067359	0.858434	0.000101
 491	4.8755e+01	9.7599	85.819413	0.000466	4.661970	0.789759	0.000093
 492	4.8855e+01	9.7781	85.932453	0.000568	5.675442	0.961446	0.000114
 493	4.8954e+01	9.7977	86.017233	0.000426	4.256582	0.721084	0.000085
 494	4.9053e+01	9.8193	86.142384	0.000628	6.283525	1.064458	0.000126
 495	4.9153e+01	9.8391	86.186792	0.000223	2.229638	0.377711	0.000045
 496	4.9252e+01	9.8584	86.295795	0.000547	5.472748	0.927109	0.000110
 497	4.9352e+01	9.8792	86.392686	0.000486	4.864665	0.824097	0.000097
 498	4.9452e+01	9.8975	86.477466	0.000426	4.256582	0.721084	0.000085
 499	4.9551e+01	9.9188	86.606654	0.000649	6.486220	1.098795	0.000130
 500	4.9651e+01	9.9384	86.679323	0.000365	3.648499	0.618072	0.000073
 501	4.9750e+01	9.9577	86.828697	0.000750	7.499692	1.270482	0.000150
 502	4.9849e+01	9.9775	86.865031	0.000182	1.824249	0.309036	0.000037
 503	4.9949e+01	9.9982	86.978071	0.000568	5.675442	0.961446	0.000114
 504	5.0048e+01	9.9770	86.925588	0.000264	2.635027	0.446386	-0.000053
 505	5.0148e+01	9.9592	86.856957	0.000345	3.445804	0.583735	-0.000069
 506	5.0248e+01	9.9379	86.768140	0.000446	4.459276	0.755422	-0.000089
 507	5.0347e+01	9.9201	86.727768	0.000203	2.026944	0.343374	-0.000041
 508	5.0447e+01	9.8981	86.642989	0.000426	4.256582	0.721084	-0.000085
 509	5.0546e+01	9.8781	86.574357	0.000345	3.445804	0.583735	-0.000069
 510	5.0645e+01	9.8586	86.546097	0.000142	1.418861	0.240361	-0.000028
 511	5.0745e+01	9.8395	86.473429	0.000365	3.648499	0.618072	-0.000073
 512	5.0844e+01	9.8193	86.404798	0.000345	3.445804	0.583735	-0.000069
 513	5.0944e+01	9.8002	86.328092	0.000385	3.851193	0.652410	-0.000077
 514	5.1044e+01	9.7791	86.239275	0.000446	4.459276	0.755422	-0.000089
 515	5.1143e+01	9.7595	86.206978	0.000162	1.621555	0.274699	-0.000032
 516	5.1242e+01	9.7394	86.126235	0.000405	4.053887	0.686747	-0.000081
 517	5.1342e+01	9.7193	86.069715	0.000284	2.837721	0.480723	-0.000057
 518	5.1441e+01	9.6987	86.021270	0.000243	2.432332	0.412048	-0.000049
 519	5.1541e+01	9.6796	85.904193	0.000588	5.878137	0.995783	-0.000118
 520	5.1641e+01	9.6591	85.859784	0.000223	2.229638	0.377711	-0.000045
 521	5.1740e+01	9.6395	85.811339	0.000243	2.432332	0.412048	-0.000049
 522	5.1840e+01	9.6196	85.746745	0.000324	3.243110	0.549398	-0.000065
 523	5.1939e+01	9.5996	85.666002	0.000405	4.053887	0.686747	-0.000081
 524	5.2038e+01	9.5801	85.613519	0.000264	2.635027	0.446386	-0.000053
 525	5.2138e+01	9.5587	85.536813	0.000385	3.851193	0.652410	-0.000077
 526	5.2237e+01	9.5398	85.415699	0.000608	6.080831	1.030121	-0.000122
 527	5.2337e+01	9.5200	85.391477	0.000122	1.216166	0.206024	-0.000024
 528	5.2437e+01	9.4996	85.298622	0.000466	4.661970	0.789759	-0.000093
 529	5.2536e+01	9.4801	85.246140	0.000264	2.635027	0.446386	-0.000053
 530	5.2636e+01	9.4611	85.153286	0.000466	4.661970	0.789759	-0.000093
 531	5.2735e+01	9.4404	85.104840	0.000243	2.432332	0.412048	-0.000049
 532	5.2834e+01	9.4199	85.020060	0.000426	4.256582	0.721084	-0.000085
 533	5.2934e+01	9.4009	84.935280	0.000426	4.256582	0.721084	-0.000085
 534	5.3033e+01	9.3803	84.882797	0.000264	2.635027	0.446386	-0.000053
 535	5.3133e+01	9.3607	84.830315	0.000264	2.635027	0.446386	-0.000053
 536	5.3233e+01	9.3408	84.741498	0.000446	4.459276	0.755422	-0.000089
 537	5.3332e+01	9.3213	84.668829	0.000365	3.648499	0.618072	-0.000073
 538	5.3431e+01	9.3006	84.596161	0.000365	3.648499	0.618072	-0.000073
 539	5.3531e+01	9.2814	84.539641	0.000284	2.837721	0.480723	-0.000057
 540	5.3630e+01	9.2603	84.442750	0.000486	4.864665	0.824097	-0.000097
 541	5.3730e+01	9.2419	84.394304	0.000243	2.432332	0.412048	-0.000049
 542	5.3830e+01	9.2215	84.337784	0.000284	2.837721	0.480723	-0.000057
 543	5.3929e+01	9.2017	84.228781	0.000547	5.472748	0.927109	-0.000110
 544	5.4029e+01	9.1816	84.144002	0.000426	4.256582	0.721084	-0.000085
 545	5.4128e+01	9.1614	84.075370	0.000345	3.445804	0.583735	-0.000069
 546	5.4227e+01	9.1415	84.002702	0.000365	3.648499	0.618072	-0.000073
 547	5.4327e+01	9.1213	83.934071	0.000345	3.445804	0.583735	-0.000069
 548	5.4426e+01	9.1016	83.865439	0.000345	3.445804	0.583735	-0.000069
 549	5.4526e+01	9.0805	83.796808	0.000345	3.445804	0.583735	-0.000069
 550	5.4626e+01	9.0629	83.695880	0.000507	5.067359	0.858434	-0.000101
 551	5.4725e+01	9.0413	83.639360	0.000284	2.837721	0.480723	-0.000057
 552	5.4825e+01	9.0234	83.554580	0.000426	4.256582	0.721084	-0.000085
 553	5.4924e+01	9.0039	83.473837	0.000405	4.053887	0.686747	-0.000081
 554	5.5023e+01	8.9820	83.401169	0.000365	3.648499	0.618072	-0.000073
 555	5.5123e+01	8.9631	83.292166	0.000547	5.472748	0.927109	-0.000110
 556	5.5222e+01	8.9429	83.207386	0.000426	4.256582	0.721084	-0.000085
 557	5.5322e+01	8.9217	83.167015	0.000203	2.026944	0.343374	-0.000041
 558	5.5422e+01	8.9022	83.062049	0.000527	5.270054	0.892771	-0.000105
 559	5.5521e+01	8.8834	82.993418	0.000345	3.445804	0.583735	-0.000069
 560	5.5620e+01	8.8627	82.944972	0.000243	2.432332	0.412048	-0.000049
 561	5.5720e+01	8.8428	82.840007	0.000527	5.270054	0.892771	-0.000105
 562	5.5819e+01	8.8242	82.751190	0.000446	4.459276	0.755422	-0.000089
 563	5.5919e+01	8.8046	82.670447	0.000405	4.053887	0.686747	-0.000081
 564	5.6019e+01	8.7830	82.650261	0.000101	1.013472	0.171687	-0.000020
 565	5.6118e+01	8.7646	82.500887	0.000750	7.499692	1.270482	-0.000150
 566	5.6218e+01	8.7434	82.472627	0.000142	1.418861	0.240361	-0.000028
 567	5.6317e+01	8.7241	82.391885	0.000405	4.053887	0.686747	-0.000081
 568	5.6416e+01	8.7041	82.319216	0.000365	3.648499	0.618072	-0.000073
 569	5.6516e+01	8.6852	82.254622	0.000324	3.243110	0.549398	-0.000065
 570	5.6615e+01	8.6642	82.153694	0.000507	5.067359	0.858434	-0.000101
 571	5.6715e+01	8.6443	82.097174	0.000284	2.837721	0.480723	-0.000057
 572	5.6815e+01	8.6247	81.988171	0.000547	5.472748	0.927109	-0.000110
 573	5.6914e+01	8.6055	81.875131	0.000568	5.675442	0.961446	-0.000114
 574	5.7014e+01	8.5849	81.858983	0.000081	0.810777	0.137349	-0.000016
 575	5.7113e+01	8.5645	81.762092	0.000486	4.864665	0.824097	-0.000097
 576	5.7212e+01	8.5439	81.673275	0.000446	4.459276	0.755422	-0.000089
 577	5.7312e+01	8.5254	81.580420	0.000466	4.661970	0.789759	-0.000093
 578	5.7411e+01	8.5038	81.540049	0.000203	2.026944	0.343374	-0.000041
 579	5.7511e+01	8.4854	81.463343	0.000385	3.851193	0.652410	-0.000077
 580	5.7611e+01	8.4652	81.366452	0.000486	4.864665	0.824097	-0.000097
 581	5.7710e+01	8.4454	81.293784	0.000365	3.648499	0.618072	-0.000073
 582	5.7809e+01	8.4245	81.237264	0.000284	2.837721	0.480723	-0.000057
 583	5.7909e+01	8.4073	81.128261	0.000547	5.472748	0.927109	-0.000110
 584	5.8008e+01	8.3859	81.027333	0.000507	5.067359	0.858434	-0.000101
 585	5.8108e+01	8.3655	80.990999	0.000182	1.824249	0.309036	-0.000037
 586	5.8208e+01	8.3452	80.922367	0.000345	3.445804	0.583735	-0.000069
 587	5.8307e+01	8.3263	80.817402	0.000527	5.270054	0.892771	-0.000105
 588	5.8407e+01	8.3066	80.756845	0.000304	3.040416	0.515060	-0.000061
 589	5.8506e+01	8.2857	80.680139	0.000385	3.851193	0.652410	-0.000077
 590	5.8605e+01	8.2661	80.587285	0.000466	4.661970	0.789759	-0.000093
 591	5.8705e+01	8.2465	80.474245	0.000568	5.675442	0.961446	-0.000114
 592	5.8804e+01	8.2263	80.413688	0.000304	3.040416	0.515060	-0.000061
 593	5.8904e+01	8.2064	80.365243	0.000243	2.432332	0.412048	-0.000049
 594	5.9004e+01	8.1864	80.252203	0.000568	5.675442	0.961446	-0.000114
 595	5.9103e+01	8.1664	80.203757	0.000243	2.432332	0.412048	-0.000049
 596	5.9203e+01	8.1467	80.078606	0.000628	6.283525	1.064458	-0.000126
 597	5.9302e+01	8.1271	80.022086	0.000284	2.837721	0.480723	-0.000057
 598	5.9401e+01	8.1064	79.929232	0.000466	4.661970	0.789759	-0.000093
 599	5.9501e+01	8.0866	79.872712	0.000284	2.837721	0.480723	-0.000057
 600	5.9600e+01	8.0667	79.808118	0.000324	3.243110	0.549398	-0.000065
 601	5.9700e+01	8.0470	79.723338	0.000426	4.256582	0.721084	-0.000085
 602	5.9800e+01	8.0271	79.614335	0.000547	5.472748	0.927109	-0.000110
 603	5.9899e+01	8.0063	79.582038	0.000162	1.621555	0.274699	-0.000032
 604	5.9998e+01	7.9860	79.432664	0.000750	7.499692	1.270482	-0.000150
 605	6.0098e+01	7.9673	79.368070	0.000324	3.243110	0.549398	-0.000065
 606	6.0197e+01	7.9474	79.331736	0.000182	1.824249	0.309036	-0.000037
 607	6.0297e+01	7.9273	79.194473	0.000689	6.891609	1.167470	-0.000138
 608	6.0397e+01	7.9078	79.129879	0.000324	3.243110	0.549398	-0.000065
 609	6.0496e+01	7.8870	79.045099	0.000426	4.256582	0.721084	-0.000085
 610	6.0596e+01	7.8687	78.972431	0.000365	3.648499	0.618072	-0.000073
 611	6.0695e+01	7.8477	78.867465	0.000527	5.270054	0.892771	-0.000105
 612	6.0794e+01	7.8275	78.798834	0.000345	3.445804	0.583735	-0.000069
 613	6.0894e+01	7.8080	78.738277	0.000304	3.040416	0.515060	-0.000061
 614	6.0993e+01	7.7873	78.605051	0.000669	6.688914	1.133133	-0.000134
 615	6.1093e+01	7.7686	78.524309	0.000405	4.053887	0.686747	-0.000081
 616	6.1193e+01	7.7476	78.463752	0.000304	3.040416	0.515060	-0.000061
 617	6.1292e+01	7.7280	78.366860	0.000486	4.864665	0.824097	-0.000097
 618	6.1392e+01	7.7080	78.298229	0.000345	3.445804	0.583735	-0.000069
 619	6.1491e+01	7.6875	78.185189	0.000568	5.675442	0.961446	-0.000114
 620	6.1590e+01	7.6676	78.108484	0.000385	3.851193	0.652410	-0.000077
 621	6.1690e+01	7.6485	78.035815	0.000365	3.648499	0.618072	-0.000073
 622	6.1789e+01	7.6288	77.942961	0.000466	4.661970	0.789759	-0.000093
 623	6.1889e+01	7.6079	77.886441	0.000284	2.837721	0.480723	-0.000057
 624	6.1989e+01	7.5884	77.777439	0.000547	5.472748	0.927109	-0.000110
 625	6.2088e+01	7.5690	77.688622	0.000446	4.459276	0.755422	-0.000089
 626	6.2188e+01	7.5491	77.591730	0.000486	4.864665	0.824097	-0.000097
 627	6.2287e+01	7.5289	77.474653	0.000588	5.878137	0.995783	-0.000118
 628	6.2386e+01	7.5094	77.418133	0.000284	2.837721	0.480723	-0.000057
 629	6.2486e+01	7.4891	77.365651	0.000264	2.635027	0.446386	-0.000053
 630	6.2586e+01	7.4697	77.260685	0.000527	5.270054	0.892771	-0.000105
 631	6.2685e+01	7.4493	77.139571	0.000608	6.080831	1.030121	-0.000122
 632	6.2785e+01	7.4294	77.087088	0.000264	2.635027	0.446386	-0.000053
 633	6.2884e+01	7.4096	76.994234	0.000466	4.661970	0.789759	-0.000093
 634	6.2983e+01	7.3892	76.873120	0.000608	6.080831	1.030121	-0.000122
 635	6.3083e+01	7.3700	76.812563	0.000304	3.040416	0.515060	-0.000061
 636	6.3182e+01	7.3495	76.756043	0.000284	2.837721	0.480723	-0.000057
 637	6.3282e+01	7.3299	76.638966	0.000588	5.878137	0.995783	-0.000118
 638	6.3382e+01	7.3103	76.602632	0.000182	1.824249	0.309036	-0.000037
 639	6.3481e+01	7.2905	76.477481	0.000628	6.283525	1.064458	-0.000126
 640	6.3581e+01	7.2706	76.412887	0.000324	3.243110	0.549398	-0.000065
 641	6.3680e+01	7.2503	76.283698	0.000649	6.486220	1.098795	-0.000130
 642	6.3779e+01	7.2301	76.231216	0.000264	2.635027	0.446386	-0.000053
 643	6.3879e+01	7.2100	76.122213	0.000547	5.472748	0.927109	-0.000110
 644	6.3978e+01	7.1905	76.049544	0.000365	3.648499	0.618072	-0.000073
 645	6.4078e+01	7.1701	75.944579	0.000527	5.270054	0.892771	-0.000105
 646	6.4177e+01	7.1505	75.855762	0.000446	4.459276	0.755422	-0.000089
 647	6.4277e+01	7.1303	75.770982	0.000426	4.256582	0.721084	-0.000085
 648	6.4376e+01	7.1108	75.649868	0.000608	6.080831	1.030121	-0.000122
 649	6.4476e+01	7.0913	75.593348	0.000284	2.837721	0.480723	-0.000057
 650	6.4576e+01	7.0708	75.480308	0.000568	5.675442	0.961446	-0.000114
 651	6.4675e+01	7.0507	75.411677	0.000345	3.445804	0.583735	-0.000069
 652	6.4775e+01	7.0309	75.347083	0.000324	3.243110	0.549398	-0.000065
 653	6.4874e+01	7.0092	75.217895	0.000649	6.486220	1.098795	-0.000130
 654	6.4974e+01	6.9907	75.145226	0.000365	3.648499	0.618072	-0.000073
 655	6.5073e+01	6.9712	75.028149	0.000588	5.878137	0.995783	-0.000118
 656	6.5172e+01	6.9510	74.931258	0.000486	4.864665	0.824097	-0.000097
 657	6.5272e+01	6.9323	74.838404	0.000466	4.661970	0.789759	-0.000093
 658	6.5371e+01	6.9111	74.737475	0.000507	5.067359	0.858434	-0.000101
 659	6.5471e+01	6.8908	74.648658	0.000446	4.459276	0.755422	-0.000089
 660	6.5570e+01	6.8710	74.580027	0.000345	3.445804	0.583735	-0.000069
 661	6.5670e+01	6.8520	74.483136	0.000486	4.864665	0.824097	-0.000097
 662	6.5769e+01	6.8313	74.366059	0.000588	5.878137	0.995783	-0.000118
 663	6.5869e+01	6.8110	74.325688	0.000203	2.026944	0.343374	-0.000041
 664	6.5969e+01	6.7913	74.192462	0.000669	6.688914	1.133133	-0.000134
 665	6.6068e+01	6.7725	74.087496	0.000527	5.270054	0.892771	-0.000105
 666	6.6168e+01	6.7519	73.986568	0.000507	5.067359	0.858434	-0.000101
 667	6.6267e+01	6.7321	73.917937	0.000345	3.445804	0.583735	-0.000069
 668	6.6367e+01	6.7132	73.796823	0.000608	6.080831	1.030121	-0.000122
 669	6.6466e+01	6.6918	73.699931	0.000486	4.864665	0.824097	-0.000097
 670	6.6566e+01	6.6725	73.631300	0.000345	3.445804	0.583735	-0.000069
 671	6.6665e+01	6.6523	73.514223	0.000588	5.878137	0.995783	-0.000118
 672	6.6764e+01	6.6325	73.433481	0.000405	4.053887	0.686747	-0.000081
 673	6.6864e+01	6.6128	73.312366	0.000608	6.080831	1.030121	-0.000122
 674	6.6963e+01	6.5926	73.231624	0.000405	4.053887	0.686747	-0.000081
 675	6.7063e+01	6.5725	73.138770	0.000466	4.661970	0.789759	-0.000093
 676	6.7162e+01	6.5533	73.005544	0.000669	6.688914	1.133133	-0.000134
 677	6.7262e+01	6.5332	72.916727	0.000446	4.459276	0.755422	-0.000089
 678	6.7362e+01	6.5129	72.848096	0.000345	3.445804	0.583735	-0.000069
 679	6.7461e+01	6.4927	72.771390	0.000385	3.851193	0.652410	-0.000077
 680	6.7561e+01	6.4732	72.634128	0.000689	6.891609	1.167470	-0.000138
 681	6.7660e+01	6.4543	72.529162	0.000527	5.270054	0.892771	-0.000105
 682	6.7760e+01	6.4331	72.436308	0.000466	4.661970	0.789759	-0.000093
 683	6.7859e+01	6.4121	72.315194	0.000608	6.080831	1.030121	-0.000122
 684	6.7959e+01	6.3934	72.238488	0.000385	3.851193	0.652410	-0.000077
 685	6.8058e+01	6.3741	72.121411	0.000588	5.878137	0.995783	-0.000118
 686	6.8157e+01	6.3543	72.052780	0.000345	3.445804	0.583735	-0.000069
 687	6.8257e+01	6.3330	71.939740	0.000568	5.675442	0.961446	-0.000114
 688	6.8356e+01	6.3137	71.822663	0.000588	5.878137	0.995783	-0.000118
 689	6.8456e+01	6.2946	71.762106	0.000304	3.040416	0.515060	-0.000061
 690	6.8555e+01	6.2742	71.645029	0.000588	5.878137	0.995783	-0.000118
 691	6.8655e+01	6.2550	71.576398	0.000345	3.445804	0.583735	-0.000069
 692	6.8754e+01	6.2350	71.459321	0.000588	5.878137	0.995783	-0.000118
 693	6.8854e+01	6.2149	71.374541	0.000426	4.256582	0.721084	-0.000085
 694	6.8954e+01	6.1955	71.245353	0.000649	6.486220	1.098795	-0.000130
 695	6.9053e+01	6.1752	71.128276	0.000588	5.878137	0.995783	-0.000118
 696	6.9153e+01	6.1552	71.039459	0.000446	4.459276	0.755422	-0.000089
 697	6.9252e+01	6.1353	70.946605	0.000466	4.661970	0.789759	-0.000093
 698	6.9352e+01	6.1155	70.861825	0.000426	4.256582	0.721084	-0.000085
 699	6.9451e+01	6.0952	70.797231	0.000324	3.243110	0.549398	-0.000065
 700	6.9550e+01	6.0757	70.668043	0.000649	6.486220	1.098795	-0.000130
 701	6.9650e+01	6.0549	70.575188	0.000466	4.661970	0.789759	-0.000093
 702	6.9749e+01	6.0354	70.470223	0.000527	5.270054	0.892771	-0.000105
 703	6.9849e+01	6.0149	70.393517	0.000385	3.851193	0.652410	-0.000077
 704	6.9948e+01	5.9966	70.264329	0.000649	6.486220	1.098795	-0.000130
 705	7.0048e+01	5.9759	70.147252	0.000588	5.878137	0.995783	-0.000118
 706	7.0147e+01	5.9557	70.070546	0.000385	3.851193	0.652410	-0.000077
 707	7.0247e+01	5.9361	69.969618	0.000507	5.067359	0.858434	-0.000101
 708	7.0347e+01	5.9155	69.876764	0.000466	4.661970	0.789759	-0.000093
 709	7.0446e+01	5.8962	69.751613	0.000628	6.283525	1.064458	-0.000126
 710	7.0546e+01	5.8761	69.662796	0.000446	4.459276	0.755422	-0.000089
 711	7.0645e+01	5.8566	69.561867	0.000507	5.067359	0.858434	-0.000101
 712	7.0745e+01	5.8363	69.424605	0.000689	6.891609	1.167470	-0.000138
 713	7.0844e+01	5.8164	69.327713	0.000486	4.864665	0.824097	-0.000097
 714	7.0944e+01	5.7963	69.246971	0.000405	4.053887	0.686747	-0.000081
 715	7.1043e+01	5.7777	69.178339	0.000345	3.445804	0.583735	-0.000069
 716	7.1142e+01	5.7565	69.041077	0.000689	6.891609	1.167470	-0.000138
 717	7.1242e+01	5.7376	68.964371	0.000385	3.851193	0.652410	-0.000077
 718	7.1341e+01	5.7171	68.843257	0.000608	6.080831	1.030121	-0.000122
 719	7.1441e+01	5.6969	68.746366	0.000486	4.864665	0.824097	-0.000097
 720	7.1540e+01	5.6753	68.645438	0.000507	5.067359	0.858434	-0.000101
 721	7.1640e+01	5.6560	68.536435	0.000547	5.472748	0.927109	-0.000110
 722	7.1740e+01	5.6357	68.431469	0.000527	5.270054	0.892771	-0.000105
 723	7.1839e+01	5.6173	68.306318	0.000628	6.283525	1.064458	-0.000126
 724	7.1939e+01	5.5975	68.185204	0.000608	6.080831	1.030121	-0.000122
 725	7.2038e+01	5.5775	68.120610	0.000324	3.243110	0.549398	-0.000065
 726	7.2138e+01	5.5575	68.003533	0.000588	5.878137	0.995783	-0.000118
 727	7.2237e+01	5.5372	67.890493	0.000568	5.675442	0.961446	-0.000114
 728	7.2337e+01	5.5169	67.789565	0.000507	5.067359	0.858434	-0.000101
 729	7.2436e+01	5.4977	67.684599	0.000527	5.270054	0.892771	-0.000105
 730	7.2535e+01	5.4768	67.595782	0.000446	4.459276	0.755422	-0.000089
 731	7.2635e+01	5.4574	67.450445	0.000730	7.296997	1.236145	-0.000146
 732	7.2734e+01	5.4374	67.377777	0.000365	3.648499	0.618072	-0.000073
 733	7.2834e+01	5.4183	67.284923	0.000466	4.661970	0.789759	-0.000093
 734	7.2933e+01	5.3974	67.167846	0.000588	5.878137	0.995783	-0.000118
 735	7.3033e+01	5.3780	67.042695	0.000628	6.283525	1.064458	-0.000126
 736	7.3132e+01	5.3580	66.970026	0.000365	3.648499	0.618072	-0.000073
 737	7.3232e+01	5.3378	66.893321	0.000385	3.851193	0.652410	-0.000077
 738	7.3332e+01	5.3182	66.743947	0.000750	7.499692	1.270482	-0.000150
 739	7.3431e+01	5.2979	66.659167	0.000426	4.256582	0.721084	-0.000085
 740	7.3531e+01	5.2779	66.562275	0.000486	4.864665	0.824097	-0.000097
 741	7.3630e+01	5.2584	66.449236	0.000568	5.675442	0.961446	-0.000114
 742	7.3730e+01	5.2392	66.336196	0.000568	5.675442	0.961446	-0.000114
 743	7.3829e+01	5.2187	66.215082	0.000608	6.080831	1.030121	-0.000122
 744	7.3928e+01	5.1983	66.106079	0.000547	5.472748	0.927109	-0.000110
 745	7.4028e+01	5.1785	66.029374	0.000385	3.851193	0.652410	-0.000077
 746	7.4127e+01	5.1588	65.912297	0.000588	5.878137	0.995783	-0.000118
 747	7.4227e+01	5.1389	65.811368	0.000507	5.067359	0.858434	-0.000101
 748	7.4326e+01	5.1189	65.710440	0.000507	5.067359	0.858434	-0.000101
 749	7.4426e+01	5.0995	65.613549	0.000486	4.864665	0.824097	-0.000097
 750	7.4525e+01	5.0794	65.508583	0.000527	5.270054	0.892771	-0.000105
 751	7.4625e+01	5.0591	65.427840	0.000405	4.053887	0.686747	-0.000081
 752	7.4725e+01	5.0393	65.278466	0.000750	7.499692	1.270482	-0.000150
 753	7.4824e+01	5.0199	65.197724	0.000405	4.053887	0.686747	-0.000081
 754	7.4924e+01	5.0000	65.108907	0.000446	4.459276	0.755422	-0.000089
 755	7.5023e+01	4.9794	65.016052	0.000466	4.661970	0.789759	-0.000093
 756	7.5123e+01	4.9587	64.898976	0.000588	5.878137	0.995783	-0.000118
 757	7.5222e+01	4.9390	64.769787	0.000649	6.486220	1.098795	-0.000130
 758	7.5322e+01	4.9199	64.668859	0.000507	5.067359	0.858434	-0.000101
 759	7.5421e+01	4.9002	64.559856	0.000547	5.472748	0.927109	-0.000110
 760	7.5520e+01	4.8794	64.430668	0.000649	6.486220	1.098795	-0.000130
 761	7.5620e+01	4.8591	64.353962	0.000385	3.851193	0.652410	-0.000077
 762	7.5719e+01	4.8402	64.253034	0.000507	5.067359	0.858434	-0.000101
 763	7.5819e+01	4.8209	64.131920	0.000608	6.080831	1.030121	-0.000122
 764	7.5918e+01	4.8009	64.006769	0.000628	6.283525	1.064458	-0.000126
 765	7.6018e+01	4.7803	63.926026	0.000405	4.053887	0.686747	-0.000081
 766	7.6118e+01	4.7609	63.845283	0.000405	4.053887	0.686747	-0.000081
 767	7.6217e+01	4.7404	63.728206	0.000588	5.878137	0.995783	-0.000118
 768	7.6317e+01	4.7212	63.623241	0.000527	5.270054	0.892771	-0.000105
 769	7.6416e+01	4.7017	63.490015	0.000669	6.688914	1.133133	-0.000134
 770	7.6516e+01	4.6812	63.421384	0.000345	3.445804	0.583735	-0.000069
 771	7.6615e+01	4.6606	63.312381	0.000547	5.472748	0.927109	-0.000110
 772	7.6715e+01	4.6416	63.203379	0.000547	5.472748	0.927109	-0.000110
 773	7.6814e+01	4.6209	63.086302	0.000588	5.878137	0.995783	-0.000118
 774	7.6913e+01	4.6009	62.969225	0.000588	5.878137	0.995783	-0.000118
 775	7.7013e+01	4.5818	62.864259	0.000527	5.270054	0.892771	-0.000105
 776	7.7112e+01	4.5615	62.735071	0.000649	6.486220	1.098795	-0.000130
 777	7.7212e+01	4.5414	62.617994	0.000588	5.878137	0.995783	-0.000118
 778	7.7311e+01	4.5216	62.500917	0.000588	5.878137	0.995783	-0.000118
 779	7.7411e+01	4.5007	62.428248	0.000365	3.648499	0.618072	-0.000073
 780	7.7510e+01	4.4810	62.331357	0.000486	4.864665	0.824097	-0.000097
 781	7.7610e+01	4.4611	62.190057	0.000709	7.094303	1.201807	-0.000142
 782	7.7710e+01	4.4411	62.113352	0.000385	3.851193	0.652410	-0.000077
 783	7.7809e+01	4.4219	61.992238	0.000608	6.080831	1.030121	-0.000122
 784	7.7909e+01	4.4012	61.863049	0.000649	6.486220	1.098795	-0.000130
 785	7.8008e+01	4.3826	61.758084	0.000527	5.270054	0.892771	-0.000105
 786	7.8108e+01	4.3621	61.636970	0.000608	6.080831	1.030121	-0.000122
 787	7.8207e+01	4.3427	61.527967	0.000547	5.472748	0.927109	-0.000110
 788	7.8306e+01	4.3217	61.439150	0.000446	4.459276	0.755422	-0.000089
 789	7.8406e+01	4.3021	61.330148	0.000547	5.472748	0.927109	-0.000110
 790	7.8505e+01	4.2827	61.188848	0.000709	7.094303	1.201807	-0.000142
 791	7.8605e+01	4.2629	61.071771	0.000588	5.878137	0.995783	-0.000118
 792	7.8704e+01	4.2432	61.003140	0.000345	3.445804	0.583735	-0.000069
 793	7.8804e+01	4.2230	60.857803	0.000730	7.296997	1.236145	-0.000146
 794	7.8903e+01	4.2028	60.712466	0.000730	7.296997	1.236145	-0.000146
 795	7.9003e+01	4.1824	60.587315	0.000628	6.283525	1.064458	-0.000126
 796	7.9103e+01	4.1621	60.522720	0.000324	3.243110	0.549398	-0.000065
 797	7.9202e+01	4.1435	60.385458	0.000689	6.891609	1.167470	-0.000138
 798	7.9302e+01	4.1230	60.276455	0.000547	5.472748	0.927109	-0.000110
 799	7.9401e+01	4.1032	60.211861	0.000324	3.243110	0.549398	-0.000065
 800	7.9501e+01	4.0817	60.102858	0.000547	5.472748	0.927109	-0.000110
 801	7.9600e+01	4.0633	59.989818	0.000568	5.675442	0.961446	-0.000114
 802	7.9700e+01	4.0401	59.864667	0.000628	6.283525	1.064458	-0.000126
 803	7.9799e+01	4.0234	59.735479	0.000649	6.486220	1.098795	-0.000130
 804	7.9898e+01	4.0028	59.638588	0.000486	4.864665	0.824097	-0.000097
 805	7.9998e+01	3.9837	59.493251	0.000730	7.296997	1.236145	-0.000146
 806	8.0097e+01	3.9626	59.420582	0.000365	3.648499	0.618072	-0.000073
 807	8.0197e+01	3.9440	59.295431	0.000628	6.283525	1.064458	-0.000126
 808	8.0296e+01	3.9236	59.174317	0.000608	6.080831	1.030121	-0.000122
 809	8.0396e+01	3.9043	59.073389	0.000507	5.067359	0.858434	-0.000101
 810	8.0496e+01	3.8836	58.960349	0.000568	5.675442	0.961446	-0.000114
 811	8.0595e+01	3.8647	58.815012	0.000730	7.296997	1.236145	-0.000146
 812	8.0695e+01	3.8445	58.710046	0.000527	5.270054	0.892771	-0.000105
 813	8.0794e+01	3.8242	58.576821	0.000669	6.688914	1.133133	-0.000134
 814	8.0894e+01	3.8041	58.520301	0.000284	2.837721	0.480723	-0.000057
 815	8.0993e+01	3.7841	58.391113	0.000649	6.486220	1.098795	-0.000130
 816	8.1093e+01	3.7655	58.257887	0.000669	6.688914	1.133133	-0.000134
 817	8.1192e+01	3.7460	58.108513	0.000750	7.499692	1.270482	-0.000150
 818	8.1291e+01	3.7253	58.051993	0.000284	2.837721	0.480723	-0.000057
 819	8.1391e+01	3.7049	57.918768	0.000669	6.688914	1.133133	-0.000134
 820	8.1490e+01	3.6855	57.797654	0.000608	6.080831	1.030121	-0.000122
 821	8.1590e+01	3.6658	57.668465	0.000649	6.486220	1.098795	-0.000130
 822	8.1689e+01	3.6455	57.551389	0.000588	5.878137	0.995783	-0.000118
 823	8.1789e+01	3.6256	57.470646	0.000405	4.053887	0.686747	-0.000081
 824	8.1888e+01	3.6053	57.288975	0.000912	9.121247	1.545181	-0.000183
 825	8.1988e+01	3.5856	57.188046	0.000507	5.067359	0.858434	-0.000101
 826	8.2088e+01	3.5651	57.066932	0.000608	6.080831	1.030121	-0.000122
 827	8.2187e+01	3.5456	56.966004	0.000507	5.067359	0.858434	-0.000101
 828	8.2287e+01	3.5252	56.877187	0.000446	4.459276	0.755422	-0.000089
 829	8.2386e+01	3.5055	56.719739	0.000791	7.905080	1.339157	-0.000158
 830	8.2486e+01	3.4856	56.634959	0.000426	4.256582	0.721084	-0.000085
 831	8.2585e+01	3.4663	56.485585	0.000750	7.499692	1.270482	-0.000150
 832	8.2684e+01	3.4457	56.396768	0.000446	4.459276	0.755422	-0.000089
 833	8.2784e+01	3.4270	56.243357	0.000770	7.702386	1.304820	-0.000154
 834	8.2883e+01	3.4055	56.118205	0.000628	6.283525	1.064458	-0.000126
 835	8.2983e+01	3.3867	55.984980	0.000669	6.688914	1.133133	-0.000134
 836	8.3082e+01	3.3660	55.875977	0.000547	5.472748	0.927109	-0.000110
 837	8.3182e+01	3.3431	55.783123	0.000466	4.661970	0.789759	-0.000093
 838	8.3281e+01	3.3267	55.662009	0.000608	6.080831	1.030121	-0.000122
 839	8.3381e+01	3.3077	55.512635	0.000750	7.499692	1.270482	-0.000150
 840	8.3481e+01	3.2870	55.415744	0.000486	4.864665	0.824097	-0.000097
 841	8.3580e+01	3.2663	55.294630	0.000608	6.080831	1.030121	-0.000122
 842	8.3680e+01	3.2467	55.149293	0.000730	7.296997	1.236145	-0.000146
 843	8.3779e+01	3.2275	55.016067	0.000669	6.688914	1.133133	-0.000134
 844	8.3879e+01	3.2063	54.903027	0.000568	5.675442	0.961446	-0.000114
 845	8.3978e+01	3.1864	54.806136	0.000486	4.864665	0.824097	-0.000097
 846	8.4078e+01	3.1667	54.640614	0.000831	8.310469	1.407832	-0.000166
 847	8.4177e+01	3.1466	54.531611	0.000547	5.472748	0.927109	-0.000110
 848	8.4276e+01	3.1280	54.414534	0.000588	5.878137	0.995783	-0.000118
 849	8.4376e+01	3.1077	54.277271	0.000689	6.891609	1.167470	-0.000138
 850	8.4475e+01	3.0868	54.160194	0.000588	5.878137	0.995783	-0.000118
 851	8.4575e+01	3.0672	54.047155	0.000568	5.675442	0.961446	-0.000114
 852	8.4674e+01	3.0475	53.917966	0.000649	6.486220	1.098795	-0.000130
 853	8.4774e+01	3.0270	53.788778	0.000649	6.486220	1.098795	-0.000130
 854	8.4874e+01	3.0070	53.724184	0.000324	3.243110	0.549398	-0.000065
 855	8.4973e+01	2.9868	53.538476	0.000932	9.323941	1.579518	-0.000187
 856	8.5073e+01	2.9675	53.441584	0.000486	4.864665	0.824097	-0.000097
 857	8.5172e+01	2.9475	53.304322	0.000689	6.891609	1.167470	-0.000138
 858	8.5272e+01	2.9284	53.187245	0.000588	5.878137	0.995783	-0.000118
 859	8.5371e+01	2.9081	53.054019	0.000669	6.688914	1.133133	-0.000134
 860	8.5471e+01	2.8881	52.900608	0.000770	7.702386	1.304820	-0.000154
 861	8.5570e+01	2.8687	52.860237	0.000203	2.026944	0.343374	-0.000041
 862	8.5669e+01	2.8479	52.666454	0.000973	9.729330	1.648193	-0.000195
 863	8.5769e+01	2.8279	52.569563	0.000486	4.864665	0.824097	-0.000097
 864	8.5868e+01	2.8081	52.428263	0.000709	7.094303	1.201807	-0.000142
 865	8.5968e+01	2.7882	52.371743	0.000284	2.837721	0.480723	-0.000057
 866	8.6067e+01	2.7680	52.214295	0.000791	7.905080	1.339157	-0.000158
 867	8.6167e+01	2.7475	52.113367	0.000507	5.067359	0.858434	-0.000101
 868	8.6266e+01	2.7290	51.976104	0.000689	6.891609	1.167470	-0.000138
 869	8.6366e+01	2.7086	51.830767	0.000730	7.296997	1.236145	-0.000146
 870	8.6466e+01	2.6884	51.693505	0.000689	6.891609	1.167470	-0.000138
 871	8.6565e+01	2.6689	51.596613	0.000486	4.864665	0.824097	-0.000097
 872	8.6665e+01	2.6488	51.491648	0.000527	5.270054	0.892771	-0.000105
 873	8.6764e+01	2.6283	51.334199	0.000791	7.905080	1.339157	-0.000158
 874	8.6864e+01	2.6093	51.221160	0.000568	5.675442	0.961446	-0.000114
 875	8.6963e+01	2.5886	51.104083	0.000588	5.878137	0.995783	-0.000118
 876	8.7063e+01	2.5687	50.987006	0.000588	5.878137	0.995783	-0.000118
 877	8.7162e+01	2.5491	50.837632	0.000750	7.499692	1.270482	-0.000150
 878	8.7261e+01	2.5299	50.740741	0.000486	4.864665	0.824097	-0.000097
 879	8.7361e+01	2.5093	50.599441	0.000709	7.094303	1.201807	-0.000142
 880	8.7460e+01	2.4889	50.486401	0.000568	5.675442	0.961446	-0.000114
 881	8.7560e+01	2.4697	50.341064	0.000730	7.296997	1.236145	-0.000146
 882	8.7659e+01	2.4501	50.207839	0.000669	6.688914	1.133133	-0.000134
 883	8.7759e+01	2.4305	50.094799	0.000568	5.675442	0.961446	-0.000114
 884	8.7859e+01	2.4100	49.937351	0.000791	7.905080	1.339157	-0.000158
 885	8.7958e+01	2.3907	49.824311	0.000568	5.675442	0.961446	-0.000114
 886	8.8058e+01	2.3706	49.699160	0.000628	6.283525	1.064458	-0.000126
 887	8.8157e+01	2.3496	49.557860	0.000709	7.094303	1.201807	-0.000142
 888	8.8257e+01	2.3307	49.452894	0.000527	5.270054	0.892771	-0.000105
 889	8.8356e+01	2.3101	49.347929	0.000527	5.270054	0.892771	-0.000105
 890	8.8456e+01	2.2900	49.214703	0.000669	6.688914	1.133133	-0.000134
 891	8.8555e+01	2.2709	49.089552	0.000628	6.283525	1.064458	-0.000126
 892	8.8654e+01	2.2506	48.928067	0.000811	8.107775	1.373494	-0.000162
 893	8.8754e+01	2.2304	48.823101	0.000527	5.270054	0.892771	-0.000105
 894	8.8853e+01	2.2115	48.685838	0.000689	6.891609	1.167470	-0.000138
 895	8.8953e+01	2.1908	48.544539	0.000709	7.094303	1.201807	-0.000142
 896	8.9052e+01	2.1700	48.379016	0.000831	8.310469	1.407832	-0.000166
 897	8.9152e+01	2.1509	48.314422	0.000324	3.243110	0.549398	-0.000065
 898	8.9251e+01	2.1302	48.156974	0.000791	7.905080	1.339157	-0.000158
 899	8.9351e+01	2.1117	48.056045	0.000507	5.067359	0.858434	-0.000101
 900	8.9451e+01	2.0911	47.918783	0.000689	6.891609	1.167470	-0.000138
 901	8.9550e+01	2.0718	47.769409	0.000750	7.499692	1.270482	-0.000150
 902	8.9650e+01	2.0515	47.644257	0.000628	6.283525	1.064458	-0.000126
 903	8.9749e+01	2.0309	47.511032	0.000669	6.688914	1.133133	-0.000134
 904	8.9849e+01	2.0107	47.393955	0.000588	5.878137	0.995783	-0.000118
 905	8.9948e+01	1.9910	47.297064	0.000486	4.864665	0.824097	-0.000097
 906	9.0047e+01	1.9715	47.139615	0.000791	7.905080	1.339157	-0.000158
 907	9.0147e+01	1.9508	47.022539	0.000588	5.878137	0.995783	-0.000118
 908	9.0246e+01	1.9316	46.929684	0.000466	4.661970	0.789759	-0.000093
 909	9.0346e+01	1.9118	46.772236	0.000791	7.905080	1.339157	-0.000158
 910	9.0445e+01	1.8916	46.651122	0.000608	6.080831	1.030121	-0.000122
 911	9.0545e+01	1.8709	46.473488	0.000892	8.918552	1.510844	-0.000179
 912	9.0644e+01	1.8515	46.404857	0.000345	3.445804	0.583735	-0.000069
 913	9.0744e+01	1.8323	46.259520	0.000730	7.296997	1.236145	-0.000146
 914	9.0844e+01	1.8125	46.170703	0.000446	4.459276	0.755422	-0.000089
 915	9.0943e+01	1.7918	45.980957	0.000953	9.526635	1.613856	-0.000191
 916	9.1043e+01	1.7727	45.855806	0.000628	6.283525	1.064458	-0.000126
 917	9.1142e+01	1.7529	45.694321	0.000811	8.107775	1.373494	-0.000162
 918	9.1242e+01	1.7315	45.613578	0.000405	4.053887	0.686747	-0.000081
 919	9.1341e+01	1.7123	45.476316	0.000689	6.891609	1.167470	-0.000138
 920	9.1441e+01	1.6924	45.347127	0.000649	6.486220	1.098795	-0.000130
 921	9.1540e+01	1.6723	45.242162	0.000527	5.270054	0.892771	-0.000105
 922	9.1639e+01	1.6526	45.084713	0.000791	7.905080	1.339157	-0.000158
 923	9.1739e+01	1.6329	44.995896	0.000446	4.459276	0.755422	-0.000089
 924	9.1838e+01	1.6123	44.810188	0.000932	9.323941	1.579518	-0.000187
 925	9.1938e+01	1.5921	44.737520	0.000365	3.648499	0.618072	-0.000073
 926	9.2037e+01	1.5732	44.616406	0.000608	6.080831	1.030121	-0.000122
 927	9.2137e+01	1.5528	44.471069	0.000730	7.296997	1.236145	-0.000146
 928	9.2237e+01	1.5326	44.337843	0.000669	6.688914	1.133133	-0.000134
 929	9.2336e+01	1.5125	44.224803	0.000568	5.675442	0.961446	-0.000114
 930	9.2436e+01	1.4933	44.075429	0.000750	7.499692	1.270482	-0.000150
 931	9.2535e+01	1.4730	43.922018	0.000770	7.702386	1.304820	-0.000154
 932	9.2635e+01	1.4528	43.804941	0.000588	5.878137	0.995783	-0.000118
 933	9.2734e+01	1.4336	43.695939	0.000547	5.472748	0.927109	-0.000110
 934	9.2834e+01	1.4129	43.582899	0.000568	5.675442	0.961446	-0.000114
 935	9.2933e+01	1.3930	43.453711	0.000649	6.486220	1.098795	-0.000130
 936	9.3032e+01	1.3741	43.312411	0.000709	7.094303	1.201807	-0.000142
 937	9.3132e+01	1.3535	43.179185	0.000669	6.688914	1.133133	-0.000134
 938	9.3231e+01	1.3334	43.041923	0.000689	6.891609	1.167470	-0.000138
 939	9.3331e+01	1.3137	42.949069	0.000466	4.661970	0.789759	-0.000093
 940	9.3430e+01	1.2946	42.827954	0.000608	6.080831	1.030121	-0.000122
 941	9.3530e+01	1.2737	42.662432	0.000831	8.310469	1.407832	-0.000166
 942	9.3629e+01	1.2551	42.525169	0.000689	6.891609	1.167470	-0.000138
 943	9.3729e+01	1.2348	42.424241	0.000507	5.067359	0.858434	-0.000101
 944	9.3829e+01	1.2147	42.266793	0.000791	7.905080	1.339157	-0.000158
 945	9.3928e+01	1.1951	42.121456	0.000730	7.296997	1.236145	-0.000146
 946	9.4028e+01	1.1739	42.020527	0.000507	5.067359	0.858434	-0.000101
 947	9.4127e+01	1.1565	41.879228	0.000709	7.094303	1.201807	-0.000142
 948	9.4227e+01	1.1351	41.746002	0.000669	6.688914	1.133133	-0.000134
 949	9.4326e+01	1.1155	41.596628	0.000750	7.499692	1.270482	-0.000150
 950	9.4425e+01	1.0950	41.515885	0.000405	4.053887	0.686747	-0.000081
 951	9.4525e+01	1.0751	41.338251	0.000892	8.918552	1.510844	-0.000179
 952	9.4624e+01	1.0555	41.253472	0.000426	4.256582	0.721084	-0.000085
 953	9.4724e+01	1.0352	41.100060	0.000770	7.702386	1.304820	-0.000154
 954	9.4823e+01	1.0164	40.962798	0.000689	6.891609	1.167470	-0.000138
 955	9.4923e+01	0.9946	40.825535	0.000689	6.891609	1.167470	-0.000138
 956	9.5022e+01	0.9756	40.664050	0.000811	8.107775	1.373494	-0.000162
 957	9.5122e+01	0.9564	40.555047	0.000547	5.472748	0.927109	-0.000110
 958	9.5222e+01	0.9361	40.425859	0.000649	6.486220	1.098795	-0.000130
 959	9.5321e+01	0.9161	40.300708	0.000628	6.283525	1.064458	-0.000126
 960	9.5421e+01	0.8954	40.147296	0.000770	7.702386	1.304820	-0.000154
 961	9.5520e+01	0.8770	40.038294	0.000547	5.472748	0.927109	-0.000110
 962	9.5620e+01	0.8561	39.872771	0.000831	8.310469	1.407832	-0.000166
 963	9.5719e+01	0.8357	39.800103	0.000365	3.648499	0.618072	-0.000073
 964	9.5819e+01	0.8168	39.626506	0.000872	8.715858	1.476506	-0.000174
 965	9.5918e+01	0.7966	39.493280	0.000669	6.688914	1.133133	-0.000134
 966	9.6017e+01	0.7771	39.360055	0.000669	6.688914	1.133133	-0.000134
 967	9.6117e+01	0.7565	39.206644	0.000770	7.702386	1.304820	-0.000154
 968	9.6216e+01	0.7372	39.065344	0.000709	7.094303	1.201807	-0.000142
 969	9.6316e+01	0.7171	38.952304	0.000568	5.675442	0.961446	-0.000114
 970	9.6415e+01	0.6965	38.831190	0.000608	6.080831	1.030121	-0.000122
 971	9.6515e+01	0.6773	38.685853	0.000730	7.296997	1.236145	-0.000146
 972	9.6615e+01	0.6568	38.532442	0.000770	7.702386	1.304820	-0.000154
 973	9.6714e+01	0.6373	38.439588	0.000466	4.661970	0.789759	-0.000093
 974	9.6814e+01	0.6176	38.306362	0.000669	6.688914	1.133133	-0.000134
 975	9.6913e+01	0.5973	38.161026	0.000730	7.296997	1.236145	-0.000146
 976	9.7013e+01	0.5773	38.011652	0.000750	7.499692	1.270482	-0.000150
 977	9.7112e+01	0.5573	37.886500	0.000628	6.283525	1.064458	-0.000126
 978	9.7212e+01	0.5371	37.773461	0.000568	5.675442	0.961446	-0.000114
 979	9.7311e+01	0.5170	37.616012	0.000791	7.905080	1.339157	-0.000158
 980	9.7410e+01	0.4971	37.474712	0.000709	7.094303	1.201807	-0.000142
 981	9.7510e+01	0.4773	37.353598	0.000608	6.080831	1.030121	-0.000122
 982	9.7609e+01	0.4575	37.228447	0.000628	6.283525	1.064458	-0.000126
 983	9.7709e+01	0.4374	37.119445	0.000547	5.472748	0.927109	-0.000110
 984	9.7808e+01	0.4182	36.961996	0.000791	7.905080	1.339157	-0.000158
 985	9.7908e+01	0.3975	36.832808	0.000649	6.486220	1.098795	-0.000130
 986	9.8007e+01	0.3777	36.671322	0.000811	8.107775	1.373494	-0.000162
 987	9.8107e+01	0.3581	36.546171	0.000628	6.283525	1.064458	-0.000126
 988	9.8207e+01	0.3377	36.412946	0.000669	6.688914	1.133133	-0.000134
 989	9.8306e+01	0.3186	36.263572	0.000750	7.499692	1.270482	-0.000150
 990	9.8406e+01	0.2976	36.114198	0.000750	7.499692	1.270482	-0.000150
 991	9.8505e+01	0.2781	35.972898	0.000709	7.094303	1.201807	-0.000142
 992	9.8605e+01	0.2589	35.851784	0.000608	6.080831	1.030121	-0.000122
 993	9.8704e+01	0.2379	35.674150	0.000892	8.918552	1.510844	-0.000179
 994	9.8803e+01	0.2181	35.581296	0.000466	4.661970	0.789759	-0.000093
 995	9.8903e+01	0.1983	35.415773	0.000831	8.310469	1.407832	-0.000166
 996	9.9002e+01	0.1788	35.339068	0.000385	3.851193	0.652410	-0.000077
 997	9.9102e+01	0.1589	35.161434	0.000892	8.918552	1.510844	-0.000179
 998	9.9201e+01	0.1383	34.979763	0.000912	9.121247	1.545181	-0.000183
 999	9.9301e+01	0.1192	34.894983	0.000426	4.256582	0.721084	-0.000085
1000	9.9400e+01	0.0984	34.757720	0.000689	6.891609	1.167470	-0.000138
1001	9.9500e+01	0.0790	34.608346	0.000750	7.499692	1.270482	-0.000150
1002	9.9600e+01	0.0597	34.458972	0.000750	7.499692	1.270482	-0.000150
1003	9.9699e+01	0.0386	34.337858	0.000608	6.080831	1.030121	-0.000122
1004	9.9799e+01	0.0197	34.188484	0.000750	7.499692	1.270482	-0.000150
1005	9.9898e+01	-0.0001	34.071407	0.000588	5.878137	0.995783	-0.000118
1006	9.9998e+01	-0.0188	33.893773	0.000892	8.918552	1.510844	-0.000179
1007	1.0010e+02	-0.0387	33.760548	0.000669	6.688914	1.133133	-0.000134
1008	1.0020e+02	-0.0583	33.611174	0.000750	7.499692	1.270482	-0.000150
1009	1.0030e+02	-0.0784	33.469874	0.000709	7.094303	1.201807	-0.000142
1010	1.0040e+02	-0.0990	33.344723	0.000628	6.283525	1.064458	-0.000126
1011	1.0050e+02	-0.1184	33.183237	0.000811	8.107775	1.373494	-0.000162
1012	1.0059e+02	-0.1381	33.066160	0.000588	5.878137	0.995783	-0.000118
1013	1.0069e+02	-0.1586	32.896601	0.000851	8.513164	1.442169	-0.000170
1014	1.0079e+02	-0.1784	32.735115	0.000811	8.107775	1.373494	-0.000162
1015	1.0089e+02	-0.1974	32.622075	0.000568	5.675442	0.961446	-0.000114
1016	1.0099e+02	-0.2184	32.460590	0.000811	8.107775	1.373494	-0.000162
1017	1.0109e+02	-0.2375	32.351587	0.000547	5.472748	0.927109	-0.000110
1018	1.0119e+02	-0.2580	32.202213	0.000750	7.499692	1.270482	-0.000150
1019	1.0129e+02	-0.2779	32.060913	0.000709	7.094303	1.201807	-0.000142
1020	1.0139e+02	-0.2987	31.927688	0.000669	6.688914	1.133133	-0.000134
1021	1.0149e+02	-0.3181	31.762165	0.000831	8.310469	1.407832	-0.000166
1022	1.0159e+02	-0.3378	31.600680	0.000811	8.107775	1.373494	-0.000162
1023	1.0169e+02	-0.3596	31.515900	0.000426	4.256582	0.721084	-0.000085
1024	1.0179e+02	-0.3780	31.346340	0.000851	8.513164	1.442169	-0.000170
1025	1.0189e+02	-0.3971	31.237338	0.000547	5.472748	0.927109	-0.000110
1026	1.0199e+02	-0.4181	31.104112	0.000669	6.688914	1.133133	-0.000134
1027	1.0209e+02	-0.4372	30.991072	0.000568	5.675442	0.961446	-0.000114
1028	1.0219e+02	-0.4575	30.781141	0.001054	10.540107	1.785542	-0.000211
1029	1.0229e+02	-0.4782	30.692324	0.000446	4.459276	0.755422	-0.000089
1030	1.0239e+02	-0.4976	30.502579	0.000953	9.526635	1.613856	-0.000191
1031	1.0248e+02	-0.5178	30.381465	0.000608	6.080831	1.030121	-0.000122
1032	1.0258e+02	-0.5367	30.215942	0.000831	8.310469	1.407832	-0.000166
1033	1.0268e+02	-0.5573	30.119051	0.000486	4.864665	0.824097	-0.000097
1034	1.0278e+02	-0.5775	29.965640	0.000770	7.702386	1.304820	-0.000154
1035	1.0288e+02	-0.5964	29.824340	0.000709	7.094303	1.201807	-0.000142
1036	1.0298e+02	-0.6172	29.662855	0.000811	8.107775	1.373494	-0.000162
1037	1.0308e+02	-0.6365	29.541741	0.000608	6.080831	1.030121	-0.000122
1038	1.0318e+02	-0.6558	29.400441	0.000709	7.094303	1.201807	-0.000142
1039	1.0328e+02	-0.6775	29.275290	0.000628	6.283525	1.064458	-0.000126
1040	1.0338e+02	-0.6967	29.129953	0.000730	7.296997	1.236145	-0.000146
1041	1.0348e+02	-0.7157	28.944245	0.000932	9.323941	1.579518	-0.000187
1042	1.0358e+02	-0.7369	28.827168	0.000588	5.878137	0.995783	-0.000118
1043	1.0368e+02	-0.7564	28.689905	0.000689	6.891609	1.167470	-0.000138
1044	1.0378e+02	-0.7766	28.580902	0.000547	5.472748	0.927109	-0.000110
1045	1.0388e+02	-0.7959	28.407306	0.000872	8.715858	1.476506	-0.000174
1046	1.0398e+02	-0.8160	28.278117	0.000649	6.486220	1.098795	-0.000130
1047	1.0408e+02	-0.8355	28.140855	0.000689	6.891609	1.167470	-0.000138
1048	1.0418e+02	-0.8562	27.963221	0.000892	8.918552	1.510844	-0.000179
1049	1.0428e+02	-0.8758	27.862292	0.000507	5.067359	0.858434	-0.000101
1050	1.0438e+02	-0.8955	27.704844	0.000791	7.905080	1.339157	-0.000158
1051	1.0447e+02	-0.9160	27.531247	0.000872	8.715858	1.476506	-0.000174
1052	1.0457e+02	-0.9357	27.393985	0.000689	6.891609	1.167470	-0.000138
1053	1.0467e+02	-0.9549	27.268833	0.000628	6.283525	1.064458	-0.000126
1054	1.0477e+02	-0.9757	27.135608	0.000669	6.688914	1.133133	-0.000134
1055	1.0487e+02	-0.9956	26.953937	0.000912	9.121247	1.545181	-0.000183
1056	1.0497e+02	-1.0143	26.832823	0.000608	6.080831	1.030121	-0.000122
1057	1.0507e+02	-1.0342	26.675374	0.000791	7.905080	1.339157	-0.000158
1058	1.0517e+02	-1.0559	26.578483	0.000486	4.864665	0.824097	-0.000097
1059	1.0527e+02	-1.0750	26.404886	0.000872	8.715858	1.476506	-0.000174
1060	1.0537e+02	-1.0949	26.267624	0.000689	6.891609	1.167470	-0.000138
1061	1.0547e+02	-1.1156	26.073841	0.000973	9.729330	1.648193	-0.000195
1062	1.0557e+02	-1.1346	26.001173	0.000365	3.648499	0.618072	-0.000073
1063	1.0567e+02	-1.1556	25.815464	0.000932	9.323941	1.579518	-0.000187
1064	1.0577e+02	-1.1747	25.682239	0.000669	6.688914	1.133133	-0.000134
1065	1.0587e+02	-1.1938	25.549014	0.000669	6.688914	1.133133	-0.000134
1066	1.0597e+02	-1.2154	25.399639	0.000750	7.499692	1.270482	-0.000150
1067	1.0607e+02	-1.2340	25.242191	0.000791	7.905080	1.339157	-0.000158
1068	1.0617e+02	-1.2550	25.125114	0.000588	5.878137	0.995783	-0.000118
1069	1.0627e+02	-1.2737	25.012074	0.000568	5.675442	0.961446	-0.000114
1070	1.0637e+02	-1.2941	24.830403	0.000912	9.121247	1.545181	-0.000183
1071	1.0647e+02	-1.3134	24.644695	0.000932	9.323941	1.579518	-0.000187
1072	1.0656e+02	-1.3339	24.563952	0.000405	4.053887	0.686747	-0.000081
1073	1.0666e+02	-1.3533	24.374207	0.000953	9.526635	1.613856	-0.000191
1074	1.0676e+02	-1.3734	24.273279	0.000507	5.067359	0.858434	-0.000101
1075	1.0686e+02	-1.3942	24.148127	0.000628	6.283525	1.064458	-0.000126
1076	1.0696e+02	-1.4136	24.018939	0.000649	6.486220	1.098795	-0.000130
1077	1.0706e+02	-1.4337	23.813045	0.001034	10.337413	1.751205	-0.000207
1078	1.0716e+02	-1.4528	23.691931	0.000608	6.080831	1.030121	-0.000122
1079	1.0726e+02	-1.4733	23.566780	0.000628	6.283525	1.064458	-0.000126
1080	1.0736e+02	-1.4927	23.441629	0.000628	6.283525	1.064458	-0.000126
1081	1.0746e+02	-1.5137	23.263995	0.000892	8.918552	1.510844	-0.000179
1082	1.0756e+02	-1.5302	23.138843	0.000628	6.283525	1.064458	-0.000126
1083	1.0766e+02	-1.5530	22.997544	0.000709	7.094303	1.201807	-0.000142
1084	1.0776e+02	-1.5732	22.872393	0.000628	6.283525	1.064458	-0.000126
1085	1.0786e+02	-1.5926	22.731093	0.000709	7.094303	1.201807	-0.000142
1086	1.0796e+02	-1.6138	22.609979	0.000608	6.080831	1.030121	-0.000122
1087	1.0806e+02	-1.6327	22.432345	0.000892	8.918552	1.510844	-0.000179
1088	1.0816e+02	-1.6522	22.291045	0.000709	7.094303	1.201807	-0.000142
1089	1.0826e+02	-1.6719	22.157819	0.000669	6.688914	1.133133	-0.000134
1090	1.0836e+02	-1.6917	22.012483	0.000730	7.296997	1.236145	-0.000146
1091	1.0845e+02	-1.7124	21.855034	0.000791	7.905080	1.339157	-0.000158
1092	1.0855e+02	-1.7333	21.729883	0.000628	6.283525	1.064458	-0.000126
1093	1.0865e+02	-1.7522	21.584546	0.000730	7.296997	1.236145	-0.000146
1094	1.0875e+02	-1.7724	21.491692	0.000466	4.661970	0.789759	-0.000093
1095	1.0885e+02	-1.7927	21.314058	0.000892	8.918552	1.510844	-0.000179
1096	1.0895e+02	-1.8127	21.217167	0.000486	4.864665	0.824097	-0.000097
1097	1.0905e+02	-1.8317	21.092016	0.000628	6.283525	1.064458	-0.000126
1098	1.0915e+02	-1.8516	20.902270	0.000953	9.526635	1.613856	-0.000191
1099	1.0925e+02	-1.8722	20.760971	0.000709	7.094303	1.201807	-0.000142
1100	1.0935e+02	-1.8912	20.639856	0.000608	6.080831	1.030121	-0.000122
1101	1.0945e+02	-1.9116	20.490482	0.000750	7.499692	1.270482	-0.000150
1102	1.0955e+02	-1.9312	20.333034	0.000791	7.905080	1.339157	-0.000158
1103	1.0965e+02	-1.9527	20.215957	0.000588	5.878137	0.995783	-0.000118
1104	1.0975e+02	-1.9714	20.062546	0.000770	7.702386	1.304820	-0.000154
1105	1.0985e+02	-1.9898	19.933358	0.000649	6.486220	1.098795	-0.000130
1106	1.0995e+02	-2.0110	19.808206	0.000628	6.283525	1.064458	-0.000126
1107	1.1005e+02	-2.0310	19.650758	0.000791	7.905080	1.339157	-0.000158
1108	1.1015e+02	-2.0520	19.505421	0.000730	7.296997	1.236145	-0.000146
1109	1.1025e+02	-2.0715	19.396419	0.000547	5.472748	0.927109	-0.000110
1110	1.1035e+02	-2.0914	19.218785	0.000892	8.918552	1.510844	-0.000179
1111	1.1044e+02	-2.1109	19.077485	0.000709	7.094303	1.201807	-0.000142
1112	1.1054e+02	-2.1306	18.948297	0.000649	6.486220	1.098795	-0.000130
1113	1.1064e+02	-2.1512	18.823145	0.000628	6.283525	1.064458	-0.000126
1114	1.1074e+02	-2.1710	18.669734	0.000770	7.702386	1.304820	-0.000154
1115	1.1084e+02	-2.1898	18.520360	0.000750	7.499692	1.270482	-0.000150
1116	1.1094e+02	-2.2107	18.358875	0.000811	8.107775	1.373494	-0.000162
1117	1.1104e+02	-2.2292	18.257946	0.000507	5.067359	0.858434	-0.000101
1118	1.1114e+02	-2.2504	18.096461	0.000811	8.107775	1.373494	-0.000162
1119	1.1124e+02	-2.2704	17.987458	0.000547	5.472748	0.927109	-0.000110
1120	1.1134e+02	-2.2909	17.834047	0.000770	7.702386	1.304820	-0.000154
1121	1.1144e+02	-2.3097	17.656413	0.000892	8.918552	1.510844	-0.000179
1122	1.1154e+02	-2.3270	17.555485	0.000507	5.067359	0.858434	-0.000101
1123	1.1164e+02	-2.3503	17.410148	0.000730	7.296997	1.236145	-0.000146
1124	1.1174e+02	-2.3698	17.236551	0.000872	8.715858	1.476506	-0.000174
1125	1.1184e+02	-2.3898	17.147734	0.000446	4.459276	0.755422	-0.000089
1126	1.1194e+02	-2.4104	17.002397	0.000730	7.296997	1.236145	-0.000146
1127	1.1204e+02	-2.4297	16.796503	0.001034	10.337413	1.751205	-0.000207
1128	1.1214e+02	-2.4496	16.687501	0.000547	5.472748	0.927109	-0.000110
1129	1.1224e+02	-2.4699	16.554275	0.000669	6.688914	1.133133	-0.000134
1130	1.1234e+02	-2.4899	16.408938	0.000730	7.296997	1.236145	-0.000146
1131	1.1244e+02	-2.5084	16.295898	0.000568	5.675442	0.961446	-0.000114
1132	1.1253e+02	-2.5281	16.114227	0.000912	9.121247	1.545181	-0.000183
1133	1.1263e+02	-2.5490	16.013299	0.000507	5.067359	0.858434	-0.000101
1134	1.1273e+02	-2.5685	15.876036	0.000689	6.891609	1.167470	-0.000138
1135	1.1283e+02	-2.5883	15.738774	0.000689	6.891609	1.167470	-0.000138
1136	1.1293e+02	-2.6092	15.569214	0.000851	8.513164	1.442169	-0.000170
1137	1.1303e+02	-2.6291	15.435988	0.000669	6.688914	1.133133	-0.000134
1138	1.1313e+02	-2.6479	15.302763	0.000669	6.688914	1.133133	-0.000134
1139	1.1323e+02	-2.6683	15.213946	0.000446	4.459276	0.755422	-0.000089
1140	1.1333e+02	-2.6894	15.020164	0.000973	9.729330	1.648193	-0.000195
1141	1.1343e+02	-2.7078	14.903087	0.000588	5.878137	0.995783	-0.000118
1142	1.1353e+02	-2.7287	14.729490	0.000872	8.715858	1.476506	-0.000174
1143	1.1363e+02	-2.7484	14.656821	0.000365	3.648499	0.618072	-0.000073
1144	1.1373e+02	-2.7682	14.446890	0.001054	10.540107	1.785542	-0.000211
1145	1.1383e+02	-2.7876	14.358073	0.000446	4.459276	0.755422	-0.000089
1146	1.1393e+02	-2.8076	14.208699	0.000750	7.499692	1.270482	-0.000150
1147	1.1403e+02	-2.8276	14.059325	0.000750	7.499692	1.270482	-0.000150
1148	1.1413e+02	-2.8480	13.954360	0.000527	5.270054	0.892771	-0.000105
1149	1.1423e+02	-2.8680	13.788837	0.000831	8.310469	1.407832	-0.000166
1150	1.1433e+02	-2.8878	13.663686	0.000628	6.283525	1.064458	-0.000126
1151	1.1442e+02	-2.9079	13.522386	0.000709	7.094303	1.201807	-0.000142
1152	1.1452e+02	-2.9282	13.373012	0.000750	7.499692	1.270482	-0.000150
1153	1.1462e+02	-2.9470	13.239787	0.000669	6.688914	1.133133	-0.000134
1154	1.1472e+02	-2.9678	13.094450	0.000730	7.296997	1.236145	-0.000146
1155	1.1482e+02	-2.9869	13.001596	0.000466	4.661970	0.789759	-0.000093
1156	1.1492e+02	-3.0077	12.827999	0.000872	8.715858	1.476506	-0.000174
1157	1.1502e+02	-3.0276	12.674588	0.000770	7.702386	1.304820	-0.000154
1158	1.1512e+02	-3.0475	12.541362	0.000669	6.688914	1.133133	-0.000134
1159	1.1522e+02	-3.0670	12.400062	0.000709	7.094303	1.201807	-0.000142
1160	1.1532e+02	-3.0862	12.250688	0.000750	7.499692	1.270482	-0.000150
1161	1.1542e+02	-3.1072	12.101314	0.000750	7.499692	1.270482	-0.000150
1162	1.1552e+02	-3.1259	12.020572	0.000405	4.053887	0.686747	-0.000081
1163	1.1562e+02	-3.1467	11.879272	0.000709	7.094303	1.201807	-0.000142
1164	1.1572e+02	-3.1661	11.725861	0.000770	7.702386	1.304820	-0.000154
1165	1.1582e+02	-3.1862	11.600710	0.000628	6.283525	1.064458	-0.000126
1166	1.1592e+02	-3.2059	11.423076	0.000892	8.918552	1.510844	-0.000179
1167	1.1602e+02	-3.2264	11.318110	0.000527	5.270054	0.892771	-0.000105
1168	1.1612e+02	-3.2465	11.136439	0.000912	9.121247	1.545181	-0.000183
1169	1.1622e+02	-3.2658	11.059733	0.000385	3.851193	0.652410	-0.000077
1170	1.1632e+02	-3.2857	10.878062	0.000912	9.121247	1.545181	-0.000183
1171	1.1642e+02	-3.3058	10.728688	0.000750	7.499692	1.270482	-0.000150
1172	1.1651e+02	-3.3260	10.611611	0.000588	5.878137	0.995783	-0.000118
1173	1.1661e+02	-3.3460	10.417829	0.000973	9.729330	1.648193	-0.000195
1174	1.1671e+02	-3.3654	10.292678	0.000628	6.283525	1.064458	-0.000126
1175	1.1681e+02	-3.3865	10.147341	0.000730	7.296997	1.236145	-0.000146
1176	1.1691e+02	-3.4053	9.989892	0.000791	7.905080	1.339157	-0.000158
1177	1.1701e+02	-3.4267	9.888964	0.000507	5.067359	0.858434	-0.000101
1178	1.1711e+02	-3.4457	9.743627	0.000730	7.296997	1.236145	-0.000146
1179	1.1721e+02	-3.4656	9.618476	0.000628	6.283525	1.064458	-0.000126
1180	1.1731e+02	-3.4856	9.481213	0.000689	6.891609	1.167470	-0.000138
1181	1.1741e+02	-3.5053	9.339914	0.000709	7.094303	1.201807	-0.000142
1182	1.1751e+02	-3.5256	9.162280	0.000892	8.918552	1.510844	-0.000179
1183	1.1761e+02	-3.5450	9.069425	0.000466	4.661970	0.789759	-0.000093
1184	1.1771e+02	-3.5642	8.928126	0.000709	7.094303	1.201807	-0.000142
1185	1.1781e+02	-3.5846	8.794900	0.000669	6.688914	1.133133	-0.000134
1186	1.1791e+02	-3.6043	8.621303	0.000872	8.715858	1.476506	-0.000174
1187	1.1801e+02	-3.6253	8.512301	0.000547	5.472748	0.927109	-0.000110
1188	1.1811e+02	-3.6450	8.387149	0.000628	6.283525	1.064458	-0.000126
1189	1.1821e+02	-3.6649	8.241813	0.000730	7.296997	1.236145	-0.000146
1190	1.1831e+02	-3.6848	8.088401	0.000770	7.702386	1.304820	-0.000154
1191	1.1841e+02	-3.7036	7.967287	0.000608	6.080831	1.030121	-0.000122
1192	1.1850e+02	-3.7241	7.838099	0.000649	6.486220	1.098795	-0.000130
1193	1.1860e+02	-3.7448	7.680651	0.000791	7.905080	1.339157	-0.000158
1194	1.1870e+02	-3.7644	7.527240	0.000770	7.702386	1.304820	-0.000154
1195	1.1880e+02	-3.7841	7.466683	0.000304	3.040416	0.515060	-0.000061
1196	1.1890e+02	-3.8039	7.280974	0.000932	9.323941	1.579518	-0.000187
1197	1.1900e+02	-3.8244	7.139675	0.000709	7.094303	1.201807	-0.000142
1198	1.1910e+02	-3.8435	6.994338	0.000730	7.296997	1.236145	-0.000146
1199	1.1920e+02	-3.8638	6.893409	0.000507	5.067359	0.858434	-0.000101
1200	1.1930e+02	-3.8844	6.727887	0.000831	8.310469	1.407832	-0.000166
1201	1.1940e+02	-3.9040	6.602735	0.000628	6.283525	1.064458	-0.000126
1202	1.1950e+02	-3.9240	6.429139	0.000872	8.715858	1.476506	-0.000174
1203	1.1960e+02	-3.9426	6.299950	0.000649	6.486220	1.098795	-0.000130
1204	1.1970e+02	-3.9641	6.207096	0.000466	4.661970	0.789759	-0.000093
1205	1.1980e+02	-3.9819	6.041574	0.000831	8.310469	1.407832	-0.000166
1206	1.1990e+02	-4.0035	5.896237	0.000730	7.296997	1.236145	-0.000146
1207	1.2000e+02	-4.0231	5.787234	0.000547	5.472748	0.927109	-0.000110
1208	1.2010e+02	-4.0427	5.645934	0.000709	7.094303	1.201807	-0.000142
1209	1.2020e+02	-4.0631	5.528857	0.000588	5.878137	0.995783	-0.000118
1210	1.2030e+02	-4.0829	5.387558	0.000709	7.094303	1.201807	-0.000142
1211	1.2039e+02	-4.1032	5.258369	0.000649	6.486220	1.098795	-0.000130
1212	1.2049e+02	-4.1222	5.121107	0.000689	6.891609	1.167470	-0.000138
1213	1.2059e+02	-4.1427	4.971733	0.000750	7.499692	1.270482	-0.000150
1214	1.2069e+02	-4.1623	4.850619	0.000608	6.080831	1.030121	-0.000122
1215	1.2079e+02	-4.1811	4.681059	0.000851	8.513164	1.442169	-0.000170
1216	1.2089e+02	-4.2031	4.551871	0.000649	6.486220	1.098795	-0.000130
1217	1.2099e+02	-4.2220	4.414608	0.000689	6.891609	1.167470	-0.000138
1218	1.2109e+02	-4.2428	4.289457	0.000628	6.283525	1.064458	-0.000126
1219	1.2119e+02	-4.2627	4.176417	0.000568	5.675442	0.961446	-0.000114
1220	1.2129e+02	-4.2825	4.006857	0.000851	8.513164	1.442169	-0.000170
1221	1.2139e+02	-4.3026	3.861520	0.000730	7.296997	1.236145	-0.000146
1222	1.2149e+02	-4.3219	3.756555	0.000527	5.270054	0.892771	-0.000105
1223	1.2159e+02	-4.3422	3.582958	0.000872	8.715858	1.476506	-0.000174
1224	1.2169e+02	-4.3622	3.473955	0.000547	5.472748	0.927109	-0.000110
1225	1.2179e+02	-4.3819	3.332656	0.000709	7.094303	1.201807	-0.000142
1226	1.2189e+02	-4.4027	3.187319	0.000730	7.296997	1.236145	-0.000146
1227	1.2199e+02	-4.4216	3.066205	0.000608	6.080831	1.030121	-0.000122
1228	1.2209e+02	-4.4411	2.937016	0.000649	6.486220	1.098795	-0.000130
1229	1.2219e+02	-4.4620	2.795716	0.000709	7.094303	1.201807	-0.000142
1230	1.2229e+02	-4.4822	2.650380	0.000730	7.296997	1.236145	-0.000146
1231	1.2239e+02	-4.5018	2.517154	0.000669	6.688914	1.133133	-0.000134
1232	1.2248e+02	-4.5219	2.359706	0.000791	7.905080	1.339157	-0.000158
1233	1.2258e+02	-4.5415	2.238592	0.000608	6.080831	1.030121	-0.000122
1234	1.2268e+02	-4.5621	2.109403	0.000649	6.486220	1.098795	-0.000130
1235	1.2278e+02	-4.5813	1.955992	0.000770	7.702386	1.304820	-0.000154
1236	1.2288e+02	-4.6005	1.834878	0.000608	6.080831	1.030121	-0.000122
1237	1.2298e+02	-4.6211	1.717801	0.000588	5.878137	0.995783	-0.000118
1238	1.2308e+02	-4.6410	1.572464	0.000730	7.296997	1.236145	-0.000146
1239	1.2318e+02	-4.6608	1.431165	0.000709	7.094303	1.201807	-0.000142
1240	1.2328e+02	-4.6811	1.281791	0.000750	7.499692	1.270482	-0.000150
1241	1.2338e+02	-4.7008	1.144528	0.000689	6.891609	1.167470	-0.000138
1242	1.2348e+02	-4.7208	1.011303	0.000669	6.688914	1.133133	-0.000134
1243	1.2358e+02	-4.7408	0.882114	0.000649	6.486220	1.098795	-0.000130
1244	1.2368e+02	-4.7605	0.785223	0.000486	4.864665	0.824097	-0.000097
1245	1.2378e+02	-4.7789	0.575292	0.001054	10.540107	1.785542	-0.000211
1246	1.2388e+02	-4.8004	0.442066	0.000669	6.688914	1.133133	-0.000134
1247	1.2398e+02	-4.8205	0.345175	0.000486	4.864665	0.824097	-0.000097
1248	1.2408e+02	-4.8392	0.199838	0.000730	7.296997	1.236145	-0.000146
1249	1.2418e+02	-4.8593	0.074687	0.000628	6.283525	1.064458	-0.000126
1250	1.2428e+02	-4.8811	-0.066613	0.000709	7.094303	1.201807	-0.000142
1251	1.2438e+02	-4.8991	-0.207912	0.000709	7.094303	1.201807	-0.000142
1252	1.2447e+02	-4.9197	-0.377472	0.000851	8.513164	1.442169	-0.000170
1253	1.2457e+02	-4.9405	-0.478401	0.000507	5.067359	0.858434	-0.000101
1254	1.2467e+02	-4.9603	-0.692369	0.001074	10.742802	1.819880	-0.000215
1255	1.2477e+02	-4.9799	-0.785223	0.000466	4.661970	0.789759	-0.000093
1256	1.2487e+02	-4.9994	-0.870003	0.000426	4.256582	0.721084	-0.000085
1257	1.2497e+02	-5.0195	-1.039562	0.000851	8.513164	1.442169	-0.000170
1258	1.2507e+02	-5.0399	-1.176825	0.000689	6.891609	1.167470	-0.000138
1259	1.2517e+02	-5.0594	-1.314088	0.000689	6.891609	1.167470	-0.000138
1260	1.2527e+02	-5.0792	-1.439239	0.000628	6.283525	1.064458	-0.000126
1261	1.2537e+02	-5.0990	-1.556316	0.000588	5.878137	0.995783	-0.000118
1262	1.2547e+02	-5.1188	-1.693578	0.000689	6.891609	1.167470	-0.000138
1263	1.2557e+02	-5.1389	-1.883324	0.000953	9.526635	1.613856	-0.000191
1264	1.2567e+02	-5.1581	-2.020586	0.000689	6.891609	1.167470	-0.000138
1265	1.2577e+02	-5.1782	-2.105366	0.000426	4.256582	0.721084	-0.000085
1266	1.2587e+02	-5.1990	-2.283000	0.000892	8.918552	1.510844	-0.000179
1267	1.2597e+02	-5.2180	-2.420263	0.000689	6.891609	1.167470	-0.000138
1268	1.2607e+02	-5.2393	-2.573674	0.000770	7.702386	1.304820	-0.000154
1269	1.2617e+02	-5.2588	-2.690751	0.000588	5.878137	0.995783	-0.000118
1270	1.2627e+02	-5.2788	-2.880496	0.000953	9.526635	1.613856	-0.000191
1271	1.2636e+02	-5.2978	-2.977388	0.000486	4.864665	0.824097	-0.000097
1272	1.2646e+02	-5.3181	-3.134836	0.000791	7.905080	1.339157	-0.000158
1273	1.2656e+02	-5.3375	-3.284210	0.000750	7.499692	1.270482	-0.000150
1274	1.2666e+02	-5.3584	-3.429547	0.000730	7.296997	1.236145	-0.000146
1275	1.2676e+02	-5.3780	-3.558735	0.000649	6.486220	1.098795	-0.000130
1276	1.2686e+02	-5.3973	-3.764629	0.001034	10.337413	1.751205	-0.000207
1277	1.2696e+02	-5.4181	-3.857483	0.000466	4.661970	0.789759	-0.000093
1278	1.2706e+02	-5.4382	-4.002820	0.000730	7.296997	1.236145	-0.000146
1279	1.2716e+02	-5.4575	-4.184491	0.000912	9.121247	1.545181	-0.000183
1280	1.2726e+02	-5.4779	-4.297531	0.000568	5.675442	0.961446	-0.000114
1281	1.2736e+02	-5.4974	-4.438831	0.000709	7.094303	1.201807	-0.000142
1282	1.2746e+02	-5.5180	-4.620502	0.000912	9.121247	1.545181	-0.000183
1283	1.2756e+02	-5.5377	-4.781987	0.000811	8.107775	1.373494	-0.000162
1284	1.2766e+02	-5.5576	-4.923287	0.000709	7.094303	1.201807	-0.000142
1285	1.2776e+02	-5.5777	-5.068624	0.000730	7.296997	1.236145	-0.000146
1286	1.2786e+02	-5.5972	-5.209924	0.000709	7.094303	1.201807	-0.000142
1287	1.2796e+02	-5.6177	-5.363335	0.000770	7.702386	1.304820	-0.000154
1288	1.2806e+02	-5.6375	-5.540969	0.000892	8.918552	1.510844	-0.000179
1289	1.2816e+02	-5.6563	-5.674194	0.000669	6.688914	1.133133	-0.000134
1290	1.2826e+02	-5.6779	-5.779160	0.000527	5.270054	0.892771	-0.000105
1291	1.2835e+02	-5.6967	-5.976979	0.000993	9.932024	1.682530	-0.000199
1292	1.2845e+02	-5.7175	-6.154613	0.000892	8.918552	1.510844	-0.000179
1293	1.2855e+02	-5.7374	-6.340322	0.000932	9.323941	1.579518	-0.000187
1294	1.2865e+02	-5.7558	-6.433176	0.000466	4.661970	0.789759	-0.000093
1295	1.2875e+02	-5.7773	-6.582550	0.000750	7.499692	1.270482	-0.000150
1296	1.2885e+02	-5.7964	-6.760184	0.000892	8.918552	1.510844	-0.000179
1297	1.2895e+02	-5.8163	-6.933781	0.000872	8.715858	1.476506	-0.000174
1298	1.2905e+02	-5.8367	-7.071043	0.000689	6.891609	1.167470	-0.000138
1299	1.2915e+02	-5.8557	-7.240603	0.000851	8.513164	1.442169	-0.000170
1300	1.2925e+02	-5.8767	-7.402088	0.000811	8.107775	1.373494	-0.000162
1301	1.2935e+02	-5.8952	-7.547425	0.000730	7.296997	1.236145	-0.000146
1302	1.2945e+02	-5.9163	-7.733134	0.000932	9.323941	1.579518	-0.000187
1303	1.2955e+02	-5.9363	-7.862322	0.000649	6.486220	1.098795	-0.000130
1304	1.2965e+02	-5.9569	-8.064179	0.001013	10.134718	1.716868	-0.000203
1305	1.2975e+02	-5.9756	-8.201441	0.000689	6.891609	1.167470	-0.000138
1306	1.2985e+02	-5.9964	-8.375038	0.000872	8.715858	1.476506	-0.000174
1307	1.2995e+02	-6.0153	-8.520375	0.000730	7.296997	1.236145	-0.000146
1308	1.3005e+02	-6.0355	-8.693972	0.000872	8.715858	1.476506	-0.000174
1309	1.3015e+02	-6.0558	-8.883717	0.000953	9.526635	1.613856	-0.000191
1310	1.3025e+02	-6.0754	-9.016943	0.000669	6.688914	1.133133	-0.000134
1311	1.3034e+02	-6.0948	-9.186502	0.000851	8.513164	1.442169	-0.000170
1312	1.3044e+02	-6.1157	-9.356062	0.000851	8.513164	1.442169	-0.000170
1313	1.3054e+02	-6.1348	-9.521585	0.000831	8.310469	1.407832	-0.000166
1314	1.3064e+02	-6.1554	-9.683070	0.000811	8.107775	1.373494	-0.000162
1315	1.3074e+02	-6.1749	-9.820333	0.000689	6.891609	1.167470	-0.000138
1316	1.3084e+02	-6.1951	-10.090821	0.001358	13.580523	2.300603	-0.000272
1317	1.3094e+02	-6.2149	-10.191749	0.000507	5.067359	0.858434	-0.000101
1318	1.3104e+02	-6.2349	-10.377457	0.000932	9.323941	1.579518	-0.000187
1319	1.3114e+02	-6.2547	-10.510683	0.000669	6.688914	1.133133	-0.000134
1320	1.3124e+02	-6.2743	-10.716577	0.001034	10.337413	1.751205	-0.000207
1321	1.3134e+02	-6.2947	-10.886137	0.000851	8.513164	1.442169	-0.000170
1322	1.3144e+02	-6.3147	-11.087993	0.001013	10.134718	1.716868	-0.000203
1323	1.3154e+02	-6.3344	-11.253516	0.000831	8.310469	1.407832	-0.000166
1324	1.3164e+02	-6.3552	-11.447298	0.000973	9.729330	1.648193	-0.000195
1325	1.3174e+02	-6.3739	-11.592635	0.000730	7.296997	1.236145	-0.000146
1326	1.3184e+02	-6.3937	-11.798529	0.001034	10.337413	1.751205	-0.000207
1327	1.3194e+02	-6.4136	-11.996349	0.000993	9.932024	1.682530	-0.000199
1328	1.3204e+02	-6.4345	-12.157834	0.000811	8.107775	1.373494	-0.000162
1329	1.3214e+02	-6.4539	-12.311245	0.000770	7.702386	1.304820	-0.000154
1330	1.3224e+02	-6.4742	-12.492917	0.000912	9.121247	1.545181	-0.000183
1331	1.3234e+02	-6.4936	-12.718996	0.001135	11.350885	1.922892	-0.000227
1332	1.3243e+02	-6.5137	-12.884519	0.000831	8.310469	1.407832	-0.000166
1333	1.3253e+02	-6.5337	-13.094450	0.001054	10.540107	1.785542	-0.000211
1334	1.3263e+02	-6.5533	-13.272084	0.000892	8.918552	1.510844	-0.000179
1335	1.3273e+02	-6.5739	-13.457792	0.000932	9.323941	1.579518	-0.000187
1336	1.3283e+02	-6.5935	-13.667723	0.001054	10.540107	1.785542	-0.000211
1337	1.3293e+02	-6.6129	-13.857468	0.000953	9.526635	1.613856	-0.000191
1338	1.3303e+02	-6.6338	-14.035102	0.000892	8.918552	1.510844	-0.000179
1339	1.3313e+02	-6.6530	-14.253108	0.001095	10.945496	1.854217	-0.000219
1340	1.3323e+02	-6.6739	-14.454965	0.001013	10.134718	1.716868	-0.000203
1341	1.3333e+02	-6.6928	-14.624524	0.000851	8.513164	1.442169	-0.000170
1342	1.3343e+02	-6.7110	-14.874827	0.001257	12.567051	2.128916	-0.000252
1343	1.3353e+02	-6.7329	-15.064572	0.000953	9.526635	1.613856	-0.000191
1344	1.3363e+02	-6.7528	-15.238169	0.000872	8.715858	1.476506	-0.000174
1345	1.3373e+02	-6.7715	-15.472323	0.001176	11.756273	1.991567	-0.000235
1346	1.3383e+02	-6.7923	-15.658031	0.000932	9.323941	1.579518	-0.000187
1347	1.3393e+02	-6.8132	-15.851813	0.000973	9.729330	1.648193	-0.000195
1348	1.3403e+02	-6.8326	-16.053670	0.001013	10.134718	1.716868	-0.000203
1349	1.3413e+02	-6.8518	-16.255527	0.001013	10.134718	1.716868	-0.000203
1350	1.3423e+02	-6.8723	-16.461421	0.001034	10.337413	1.751205	-0.000207
1351	1.3432e+02	-6.8922	-16.715761	0.001277	12.769745	2.163253	-0.000256
1352	1.3442e+02	-6.9116	-16.885320	0.000851	8.513164	1.442169	-0.000170
1353	1.3452e+02	-6.9324	-17.123511	0.001196	11.958968	2.025904	-0.000239
1354	1.3462e+02	-6.9521	-17.329405	0.001034	10.337413	1.751205	-0.000207
1355	1.3472e+02	-6.9719	-17.511076	0.000912	9.121247	1.545181	-0.000183
1356	1.3482e+02	-6.9910	-17.712933	0.001013	10.134718	1.716868	-0.000203
1357	1.3492e+02	-7.0121	-17.951124	0.001196	11.958968	2.025904	-0.000239
1358	1.3502e+02	-7.0314	-18.185278	0.001176	11.756273	1.991567	-0.000235
1359	1.3512e+02	-7.0520	-18.399246	0.001074	10.742802	1.819880	-0.000215
1360	1.3522e+02	-7.0718	-18.629363	0.001155	11.553579	1.957229	-0.000231
1361	1.3532e+02	-7.0923	-18.831220	0.001013	10.134718	1.716868	-0.000203
1362	1.3542e+02	-7.1114	-19.033076	0.001013	10.134718	1.716868	-0.000203
1363	1.3552e+02	-7.1317	-19.275305	0.001216	12.161662	2.060241	-0.000243
1364	1.3562e+02	-7.1515	-19.509458	0.001176	11.756273	1.991567	-0.000235
1365	1.3572e+02	-7.1701	-19.695167	0.000932	9.323941	1.579518	-0.000187
1366	1.3582e+02	-7.1919	-19.945469	0.001257	12.567051	2.128916	-0.000252
1367	1.3592e+02	-7.2119	-20.187697	0.001216	12.161662	2.060241	-0.000243
1368	1.3602e+02	-7.2306	-20.385517	0.000993	9.932024	1.682530	-0.000199
1369	1.3612e+02	-7.2510	-20.660042	0.001378	13.783217	2.334940	-0.000276
1370	1.3622e+02	-7.2702	-20.874010	0.001074	10.742802	1.819880	-0.000215
1371	1.3631e+02	-7.2910	-21.071830	0.000993	9.932024	1.682530	-0.000199
1372	1.3641e+02	-7.3099	-21.326170	0.001277	12.769745	2.163253	-0.000256
1373	1.3651e+02	-7.3303	-21.564361	0.001196	11.958968	2.025904	-0.000239
1374	1.3661e+02	-7.3502	-21.818700	0.001277	12.769745	2.163253	-0.000256
1375	1.3671e+02	-7.3706	-22.052854	0.001176	11.756273	1.991567	-0.000235
1376	1.3681e+02	-7.3912	-22.295082	0.001216	12.161662	2.060241	-0.000243
1377	1.3691e+02	-7.4110	-22.565570	0.001358	13.580523	2.300603	-0.000272
1378	1.3701e+02	-7.4300	-22.771464	0.001034	10.337413	1.751205	-0.000207
1379	1.3711e+02	-7.4503	-22.993507	0.001115	11.148190	1.888555	-0.000223
1380	1.3721e+02	-7.4693	-23.255920	0.001318	13.175134	2.231928	-0.000264
1381	1.3731e+02	-7.4905	-23.510260	0.001277	12.769745	2.163253	-0.000256
1382	1.3741e+02	-7.5098	-23.736340	0.001135	11.350885	1.922892	-0.000227
1383	1.3751e+02	-7.5304	-23.998753	0.001318	13.175134	2.231928	-0.000264
1384	1.3761e+02	-7.5494	-24.245019	0.001236	12.364357	2.094579	-0.000248
1385	1.3771e+02	-7.5700	-24.555878	0.001561	15.607466	2.643976	-0.000312
1386	1.3781e+02	-7.5891	-24.806181	0.001257	12.567051	2.128916	-0.000252
1387	1.3791e+02	-7.6086	-25.072632	0.001338	13.377828	2.266265	-0.000268
1388	1.3801e+02	-7.6288	-25.282563	0.001054	10.540107	1.785542	-0.000211
1389	1.3811e+02	-7.6483	-25.569199	0.001439	14.391300	2.437952	-0.000288
1390	1.3821e+02	-7.6685	-25.831613	0.001318	13.175134	2.231928	-0.000264
1391	1.3831e+02	-7.6891	-26.077878	0.001236	12.364357	2.094579	-0.000248
1392	1.3840e+02	-7.7087	-26.348366	0.001358	13.580523	2.300603	-0.000272
1393	1.3850e+02	-7.7281	-26.647114	0.001500	14.999383	2.540964	-0.000300
1394	1.3860e+02	-7.7486	-26.913565	0.001338	13.377828	2.266265	-0.000268
1395	1.3870e+02	-7.7689	-27.204239	0.001459	14.593995	2.472290	-0.000292
1396	1.3880e+02	-7.7878	-27.434356	0.001155	11.553579	1.957229	-0.000231
1397	1.3890e+02	-7.8087	-27.720993	0.001439	14.391300	2.437952	-0.000288
1398	1.3900e+02	-7.8282	-28.027815	0.001540	15.404772	2.609639	-0.000308
1399	1.3910e+02	-7.8483	-28.282154	0.001277	12.769745	2.163253	-0.000256
1400	1.3920e+02	-7.8685	-28.609162	0.001642	16.418244	2.781326	-0.000329
1401	1.3930e+02	-7.8879	-28.891762	0.001419	14.188606	2.403615	-0.000284
1402	1.3940e+02	-7.9083	-29.162250	0.001358	13.580523	2.300603	-0.000272
1403	1.3950e+02	-7.9279	-29.428701	0.001338	13.377828	2.266265	-0.000268
1404	1.3960e+02	-7.9483	-29.743598	0.001581	15.810161	2.678314	-0.000316
1405	1.3970e+02	-7.9671	-30.030234	0.001439	14.391300	2.437952	-0.000288
1406	1.3980e+02	-7.9878	-30.316871	0.001439	14.391300	2.437952	-0.000288
1407	1.3990e+02	-8.0078	-30.631767	0.001581	15.810161	2.678314	-0.000316
1408	1.4000e+02	-8.0270	-30.954738	0.001622	16.215550	2.746988	-0.000325
1409	1.4010e+02	-8.0467	-31.229264	0.001378	13.783217	2.334940	-0.000276
1410	1.4020e+02	-8.0673	-31.560309	0.001662	16.620938	2.815663	-0.000333
1411	1.4029e+02	-8.0870	-31.810611	0.001257	12.567051	2.128916	-0.000252
1412	1.4039e+02	-8.1076	-32.153768	0.001723	17.229021	2.918675	-0.000345
1413	1.4049e+02	-8.1265	-32.420219	0.001338	13.377828	2.266265	-0.000268
1414	1.4059e+02	-8.1474	-32.751264	0.001662	16.620938	2.815663	-0.000333
1415	1.4069e+02	-8.1672	-33.066160	0.001581	15.810161	2.678314	-0.000316
1416	1.4079e+02	-8.1875	-33.381057	0.001581	15.810161	2.678314	-0.000316
1417	1.4089e+02	-8.2059	-33.675768	0.001480	14.796689	2.506627	-0.000296
1418	1.4099e+02	-8.2271	-34.047184	0.001865	18.647882	3.159037	-0.000373
1419	1.4109e+02	-8.2465	-34.329784	0.001419	14.188606	2.403615	-0.000284
1420	1.4119e+02	-8.2661	-34.632569	0.001520	15.202078	2.575302	-0.000304
1421	1.4129e+02	-8.2858	-34.967651	0.001682	16.823633	2.850001	-0.000337
1422	1.4139e+02	-8.3058	-35.298696	0.001662	16.620938	2.815663	-0.000333
1423	1.4149e+02	-8.3252	-35.613593	0.001581	15.810161	2.678314	-0.000316
1424	1.4159e+02	-8.3459	-35.993084	0.001905	19.053271	3.227711	-0.000381
1425	1.4169e+02	-8.3649	-36.299906	0.001540	15.404772	2.609639	-0.000308
1426	1.4179e+02	-8.3865	-36.618840	0.001601	16.012855	2.712651	-0.000321
1427	1.4189e+02	-8.4059	-37.006405	0.001946	19.458659	3.296386	-0.000390
1428	1.4199e+02	-8.4253	-37.349561	0.001723	17.229021	2.918675	-0.000345
1429	1.4209e+02	-8.4448	-37.668495	0.001601	16.012855	2.712651	-0.000321
1430	1.4219e+02	-8.4656	-38.007614	0.001703	17.026327	2.884338	-0.000341
1431	1.4228e+02	-8.4845	-38.366919	0.001804	18.039799	3.056025	-0.000361
1432	1.4238e+02	-8.5046	-38.702002	0.001682	16.823633	2.850001	-0.000337
1433	1.4248e+02	-8.5257	-39.085530	0.001926	19.255965	3.262049	-0.000385
1434	1.4258e+02	-8.5448	-39.460983	0.001885	18.850576	3.193374	-0.000377
1435	1.4268e+02	-8.5656	-39.808177	0.001743	17.431716	2.953013	-0.000349
1436	1.4278e+02	-8.5846	-40.187668	0.001905	19.053271	3.227711	-0.000381
1437	1.4288e+02	-8.6053	-40.514676	0.001642	16.418244	2.781326	-0.000329
1438	1.4298e+02	-8.6255	-40.930501	0.002088	20.877520	3.536748	-0.000418
1439	1.4308e+02	-8.6450	-41.318066	0.001946	19.458659	3.296386	-0.000390
1440	1.4318e+02	-8.6642	-41.689482	0.001865	18.647882	3.159037	-0.000373
1441	1.4328e+02	-8.6838	-42.052824	0.001824	18.242493	3.090362	-0.000365
1442	1.4338e+02	-8.7048	-42.412129	0.001804	18.039799	3.056025	-0.000361
1443	1.4348e+02	-8.7247	-42.787583	0.001885	18.850576	3.193374	-0.000377
1444	1.4358e+02	-8.7441	-43.227631	0.002209	22.093686	3.742772	-0.000442
1445	1.4368e+02	-8.7641	-43.607122	0.001905	19.053271	3.227711	-0.000381
1446	1.4378e+02	-8.7851	-43.994687	0.001946	19.458659	3.296386	-0.000390
1447	1.4388e+02	-8.8051	-44.410512	0.002088	20.877520	3.536748	-0.000418
1448	1.4398e+02	-8.8246	-44.850559	0.002209	22.093686	3.742772	-0.000442
1449	1.4408e+02	-8.8440	-45.201790	0.001763	17.634410	2.987350	-0.000353
1450	1.4418e+02	-8.8640	-45.617615	0.002088	20.877520	3.536748	-0.000418
1451	1.4428e+02	-8.8843	-46.021329	0.002027	20.269437	3.433736	-0.000406
1452	1.4437e+02	-8.9046	-46.437154	0.002088	20.877520	3.536748	-0.000418
1453	1.4447e+02	-8.9248	-46.877202	0.002209	22.093686	3.742772	-0.000442
1454	1.4457e+02	-8.9439	-47.264767	0.001946	19.458659	3.296386	-0.000390
1455	1.4467e+02	-8.9636	-47.688666	0.002128	21.282909	3.605422	-0.000426
1456	1.4477e+02	-8.9838	-48.148899	0.002311	23.107158	3.914459	-0.000463
1457	1.4487e+02	-9.0025	-48.552613	0.002027	20.269437	3.433736	-0.000406
1458	1.4497e+02	-9.0231	-49.020921	0.002351	23.512547	3.983133	-0.000471
1459	1.4507e+02	-9.0427	-49.477117	0.002290	22.904464	3.880121	-0.000458
1460	1.4517e+02	-9.0630	-49.896979	0.002108	21.080214	3.571085	-0.000422
1461	1.4527e+02	-9.0816	-50.349138	0.002270	22.701769	3.845784	-0.000454
1462	1.4537e+02	-9.1035	-50.813409	0.002331	23.309852	3.948796	-0.000467
1463	1.4547e+02	-9.1228	-51.277680	0.002331	23.309852	3.948796	-0.000467
1464	1.4557e+02	-9.1434	-51.705616	0.002149	21.485603	3.639760	-0.000430
1465	1.4567e+02	-9.1617	-52.149701	0.002230	22.296381	3.777109	-0.000446
1466	1.4577e+02	-9.1826	-52.654343	0.002534	25.336796	4.292169	-0.000507
1467	1.4587e+02	-9.2023	-53.102465	0.002250	22.499075	3.811446	-0.000450
1468	1.4597e+02	-9.2224	-53.582884	0.002412	24.120630	4.086145	-0.000483
1469	1.4607e+02	-9.2422	-54.087526	0.002534	25.336796	4.292169	-0.000507
1470	1.4617e+02	-9.2622	-54.551797	0.002331	23.309852	3.948796	-0.000467
1471	1.4626e+02	-9.2822	-55.048364	0.002493	24.931407	4.223495	-0.000499
1472	1.4636e+02	-9.3021	-55.496486	0.002250	22.499075	3.811446	-0.000450
1473	1.4646e+02	-9.3217	-56.037463	0.002716	27.161046	4.601206	-0.000544
1474	1.4656e+02	-9.3420	-56.501733	0.002331	23.309852	3.948796	-0.000467
1475	1.4666e+02	-9.3613	-57.026561	0.002635	26.350268	4.463856	-0.000527
1476	1.4676e+02	-9.3826	-57.515054	0.002453	24.526019	4.154820	-0.000491
1477	1.4686e+02	-9.4022	-58.072179	0.002797	27.971823	4.738555	-0.000560
1478	1.4696e+02	-9.4214	-58.572784	0.002513	25.134102	4.257832	-0.000503
1479	1.4706e+02	-9.4409	-59.101649	0.002655	26.552962	4.498194	-0.000532
1480	1.4716e+02	-9.4614	-59.602253	0.002513	25.134102	4.257832	-0.000503
1481	1.4726e+02	-9.4821	-60.139193	0.002696	26.958351	4.566868	-0.000540
1482	1.4736e+02	-9.5009	-60.651909	0.002574	25.742185	4.360844	-0.000515
1483	1.4746e+02	-9.5200	-61.200959	0.002757	27.566434	4.669880	-0.000552
1484	1.4756e+02	-9.5410	-61.774232	0.002878	28.782600	4.875905	-0.000576
1485	1.4766e+02	-9.5604	-62.295023	0.002615	26.147574	4.429519	-0.000523
1486	1.4776e+02	-9.5801	-62.864259	0.002858	28.579906	4.841567	-0.000572
1487	1.4786e+02	-9.6014	-63.429458	0.002838	28.377212	4.807230	-0.000568
1488	1.4796e+02	-9.6211	-63.962360	0.002676	26.755657	4.532531	-0.000536
1489	1.4806e+02	-9.6400	-64.567930	0.003040	30.404155	5.150603	-0.000609
1490	1.4816e+02	-9.6611	-65.116981	0.002757	27.566434	4.669880	-0.000552
1491	1.4825e+02	-9.6808	-65.698328	0.002919	29.187989	4.944579	-0.000584
1492	1.4835e+02	-9.7000	-66.283713	0.002939	29.390684	4.978917	-0.000588
1493	1.4845e+02	-9.7205	-66.881209	0.003000	29.998767	5.081929	-0.000600
1494	1.4855e+02	-9.7398	-67.502928	0.003121	31.214933	5.287953	-0.000625
1495	1.4865e+02	-9.7598	-68.056016	0.002777	27.769129	4.704218	-0.000556
1496	1.4875e+02	-9.7795	-68.681772	0.003142	31.417627	5.322290	-0.000629
1497	1.4885e+02	-9.7998	-69.279268	0.003000	29.998767	5.081929	-0.000600
1498	1.4895e+02	-9.8206	-69.953470	0.003385	33.849960	5.734338	-0.000678
1499	1.4905e+02	-9.8389	-70.546928	0.002980	29.796072	5.047591	-0.000596
1500	1.4915e+02	-9.8596	-71.176722	0.003162	31.620322	5.356627	-0.000633
1501	1.4925e+02	-9.8800	-71.810552	0.003182	31.823016	5.390965	-0.000637
1502	1.4935e+02	-9.8999	-72.452457	0.003223	32.228405	5.459640	-0.000645
1503	1.4945e+02	-9.9196	-73.106473	0.003284	32.836488	5.562652	-0.000657
1504	1.4955e+02	-9.9384	-73.744340	0.003203	32.025710	5.425302	-0.000641
1505	1.4965e+02	-9.9594	-74.438727	0.003486	34.863432	5.906025	-0.000698
1506	1.4975e+02	-9.9799	-75.108892	0.003365	33.647265	5.700001	-0.000674
1507	1.4985e+02	-9.9986	-75.762908	0.003284	32.836488	5.562652	-0.000657
1508	1.4995e+02	-9.9786	-76.231216	-0.002351	-23.512547	-3.983133	-0.000471
1509	1.5005e+02	-9.9599	-76.747969	-0.002594	-25.944879	-4.395182	-0.000519
1510	1.5015e+02	-9.9387	-77.192054	-0.002230	-22.296381	-3.777109	-0.000446
1511	1.5025e+02	-9.9197	-77.587693	-0.001986	-19.864048	-3.365061	-0.000398
1512	1.5034e+02	-9.8991	-77.951035	-0.001824	-18.242493	-3.090362	-0.000365
1513	1.5044e+02	-9.8796	-78.370898	-0.002108	-21.080214	-3.571085	-0.000422
1514	1.5054e+02	-9.8590	-78.730203	-0.001804	-18.039799	-3.056025	-0.000361
1515	1.5064e+02	-9.8398	-79.097582	-0.001845	-18.445188	-3.124699	-0.000369
1516	1.5074e+02	-9.8209	-79.452850	-0.001784	-17.837105	-3.021687	-0.000357
1517	1.5084e+02	-9.7998	-79.751598	-0.001500	-14.999383	-2.540964	-0.000300
1518	1.5094e+02	-9.7800	-80.054383	-0.001520	-15.202078	-2.575302	-0.000304
1519	1.5104e+02	-9.7603	-80.349094	-0.001480	-14.796689	-2.506627	-0.000296
1520	1.5114e+02	-9.7400	-80.651879	-0.001520	-15.202078	-2.575302	-0.000304
1521	1.5124e+02	-9.7198	-80.886033	-0.001176	-11.756273	-1.991567	-0.000235
1522	1.5134e+02	-9.7003	-81.184781	-0.001500	-14.999383	-2.540964	-0.000300
1523	1.5144e+02	-9.6804	-81.427009	-0.001216	-12.161662	-2.060241	-0.000243
1524	1.5154e+02	-9.6614	-81.653089	-0.001135	-11.350885	-1.922892	-0.000227
1525	1.5164e+02	-9.6416	-81.959911	-0.001540	-15.404772	-2.609639	-0.000308
1526	1.5174e+02	-9.6204	-82.153694	-0.000973	-9.729330	-1.648193	-0.000195
1527	1.5184e+02	-9.6002	-82.383810	-0.001155	-11.553579	-1.957229	-0.000231
1528	1.5194e+02	-9.5807	-82.589704	-0.001034	-10.337413	-1.751205	-0.000207
1529	1.5204e+02	-9.5601	-82.811747	-0.001115	-11.148190	-1.888555	-0.000223
1530	1.5214e+02	-9.5410	-83.053975	-0.001216	-12.161662	-2.060241	-0.000243
1531	1.5224e+02	-9.5216	-83.207386	-0.000770	-7.702386	-1.304820	-0.000154
1532	1.5233e+02	-9.5016	-83.385020	-0.000892	-8.918552	-1.510844	-0.000179
1533	1.5243e+02	-9.4814	-83.554580	-0.000851	-8.513164	-1.442169	-0.000170
1534	1.5253e+02	-9.4609	-83.748362	-0.000973	-9.729330	-1.648193	-0.000195
1535	1.5263e+02	-9.4411	-83.893699	-0.000730	-7.296997	-1.236145	-0.000146
1536	1.5273e+02	-9.4208	-84.063259	-0.000851	-8.513164	-1.442169	-0.000170
1537	1.5283e+02	-9.4016	-84.212633	-0.000750	-7.499692	-1.270482	-0.000150
1538	1.5293e+02	-9.3822	-84.366044	-0.000770	-7.702386	-1.304820	-0.000154
1539	1.5303e+02	-9.3616	-84.507344	-0.000709	-7.094303	-1.201807	-0.000142
1540	1.5313e+02	-9.3420	-84.652681	-0.000730	-7.296997	-1.236145	-0.000146
1541	1.5323e+02	-9.3228	-84.798018	-0.000730	-7.296997	-1.236145	-0.000146
1542	1.5333e+02	-9.3028	-84.927206	-0.000649	-6.486220	-1.098795	-0.000130
1543	1.5343e+02	-9.2827	-85.028134	-0.000507	-5.067359	-0.858434	-0.000101
1544	1.5353e+02	-9.2622	-85.173471	-0.000730	-7.296997	-1.236145	-0.000146
1545	1.5363e+02	-9.2413	-85.254214	-0.000405	-4.053887	-0.686747	-0.000081
1546	1.5373e+02	-9.2223	-85.383402	-0.000649	-6.486220	-1.098795	-0.000130
1547	1.5383e+02	-9.2021	-85.484331	-0.000507	-5.067359	-0.858434	-0.000101
1548	1.5393e+02	-9.1827	-85.556999	-0.000365	-3.648499	-0.618072	-0.000073
1549	1.5403e+02	-9.1620	-85.666002	-0.000547	-5.472748	-0.927109	-0.000110
1550	1.5413e+02	-9.1428	-85.758856	-0.000466	-4.661970	-0.789759	-0.000093
1551	1.5422e+02	-9.1228	-85.851710	-0.000466	-4.661970	-0.789759	-0.000093
1552	1.5432e+02	-9.1032	-85.936490	-0.000426	-4.256582	-0.721084	-0.000085
1553	1.5442e+02	-9.0829	-85.997047	-0.000304	-3.040416	-0.515060	-0.000061
1554	1.5452e+02	-9.0636	-86.081827	-0.000426	-4.256582	-0.721084	-0.000085
1555	1.5462e+02	-9.0430	-86.154495	-0.000365	-3.648499	-0.618072	-0.000073
1556	1.5472e+02	-9.0231	-86.186792	-0.000162	-1.621555	-0.274699	-0.000032
1557	1.5482e+02	-9.0036	-86.291758	-0.000527	-5.270054	-0.892771	-0.000105
1558	1.5492e+02	-8.9835	-86.360389	-0.000345	-3.445804	-0.583735	-0.000069
1559	1.5502e+02	-8.9639	-86.441132	-0.000405	-4.053887	-0.686747	-0.000081
1560	1.5512e+02	-8.9434	-86.441132	0.000000	0.000000	0.000000	0.000000
1561	1.5522e+02	-8.9237	-86.513800	-0.000365	-3.648499	-0.618072	-0.000073
1562	1.5532e+02	-8.9037	-86.590506	-0.000385	-3.851193	-0.652410	-0.000077
1563	1.5542e+02	-8.8834	-86.638952	-0.000243	-2.432332	-0.412048	-0.000049
1564	1.5552e+02	-8.8634	-86.651063	-0.000061	-0.608083	-0.103012	-0.000012
1565	1.5562e+02	-8.8442	-86.675286	-0.000122	-1.216166	-0.206024	-0.000024
1566	1.5572e+02	-8.8239	-86.727768	-0.000264	-2.635027	-0.446386	-0.000053
1567	1.5582e+02	-8.8040	-86.735843	-0.000041	-0.405389	-0.068675	-0.000008
1568	1.5592e+02	-8.7846	-86.772177	-0.000182	-1.824249	-0.309036	-0.000037
1569	1.5602e+02	-8.7641	-86.820623	-0.000243	-2.432332	-0.412048	-0.000049
1570	1.5612e+02	-8.7439	-86.873105	-0.000264	-2.635027	-0.446386	-0.000053
1571	1.5622e+02	-8.7251	-86.873105	0.000000	0.000000	0.000000	0.000000
1572	1.5631e+02	-8.7048	-86.877143	-0.000020	-0.202694	-0.034337	-0.000004
1573	1.5641e+02	-8.6856	-86.889254	-0.000061	-0.608083	-0.103012	-0.000012
1574	1.5651e+02	-8.6655	-86.937700	-0.000243	-2.432332	-0.412048	-0.000049
1575	1.5661e+02	-8.6472	-86.937700	0.000000	0.000000	0.000000	0.000000
1576	1.5671e+02	-8.6248	-86.974034	-0.000182	-1.824249	-0.309036	-0.000037
1577	1.5681e+02	-8.6047	-86.974034	0.000000	0.000000	0.000000	0.000000
1578	1.5691e+02	-8.5847	-86.978071	-0.000020	-0.202694	-0.034337	-0.000004
1579	1.5701e+02	-8.5643	-86.945774	0.000162	1.621555	0.274699	0.000032
1580	1.5711e+02	-8.5448	-86.949811	-0.000020	-0.202694	-0.034337	-0.000004
1581	1.5721e+02	-8.5249	-86.961922	-0.000061	-0.608083	-0.103012	-0.000012
1582	1.5731e+02	-8.5098	-86.949811	0.000061	0.608083	0.103012	0.000012
1583	1.5741e+02	-8.4859	-86.978071	-0.000142	-1.418861	-0.240361	-0.000028
1584	1.5751e+02	-8.4654	-86.978071	0.000000	0.000000	0.000000	0.000000
1585	1.5761e+02	-8.4460	-86.957885	0.000101	1.013472	0.171687	0.000020
1586	1.5771e+02	-8.4261	-86.925588	0.000162	1.621555	0.274699	0.000032
1587	1.5781e+02	-8.4056	-86.913477	0.000061	0.608083	0.103012	0.000012
1588	1.5791e+02	-8.3858	-86.885217	0.000142	1.418861	0.240361	0.000028
1589	1.5801e+02	-8.3655	-86.889254	-0.000020	-0.202694	-0.034337	-0.000004
1590	1.5811e+02	-8.3459	-86.869068	0.000101	1.013472	0.171687	0.000020
1591	1.5821e+02	-8.3258	-86.873105	-0.000020	-0.202694	-0.034337	-0.000004
1592	1.5830e+02	-8.3062	-86.820623	0.000264	2.635027	0.446386	0.000053
1593	1.5840e+02	-8.2860	-86.820623	0.000000	0.000000	0.000000	0.000000
1594	1.5850e+02	-8.2670	-86.747954	0.000365	3.648499	0.618072	0.000073
1595	1.5860e+02	-8.2462	-86.747954	0.000000	0.000000	0.000000	0.000000
1596	1.5870e+02	-8.2263	-86.760066	-0.000061	-0.608083	-0.103012	-0.000012
1597	1.5880e+02	-8.2056	-86.671249	0.000446	4.459276	0.755422	0.000089
1598	1.5890e+02	-8.1860	-86.691434	-0.000101	-1.013472	-0.171687	-0.000020
1599	1.5900e+02	-8.1668	-86.638952	0.000264	2.635027	0.446386	0.000053
1600	1.5910e+02	-8.1470	-86.618766	0.000101	1.013472	0.171687	0.000020
1601	1.5920e+02	-8.1250	-86.533986	0.000426	4.256582	0.721084	0.000085
1602	1.5930e+02	-8.1074	-86.497652	0.000182	1.824249	0.309036	0.000037
1603	1.5940e+02	-8.0871	-86.505726	-0.000041	-0.405389	-0.068675	-0.000008
1604	1.5950e+02	-8.0669	-86.453243	0.000264	2.635027	0.446386	0.000053
1605	1.5960e+02	-8.0472	-86.388649	0.000324	3.243110	0.549398	0.000065
1606	1.5970e+02	-8.0276	-86.380575	0.000041	0.405389	0.068675	0.000008
1607	1.5980e+02	-8.0067	-86.368463	0.000061	0.608083	0.103012	0.000012
1608	1.5990e+02	-7.9872	-86.295795	0.000365	3.648499	0.618072	0.000073
1609	1.6000e+02	-7.9674	-86.271572	0.000122	1.216166	0.206024	0.000024
1610	1.6010e+02	-7.9479	-86.202941	0.000345	3.445804	0.583735	0.000069
1611	1.6019e+02	-7.9272	-86.202941	0.000000	0.000000	0.000000	0.000000
1612	1.6029e+02	-7.9076	-86.154495	0.000243	2.432332	0.412048	0.000049
1613	1.6039e+02	-7.8882	-86.065678	0.000446	4.459276	0.755422	0.000089
1614	1.6049e+02	-7.8682	-86.033381	0.000162	1.621555	0.274699	0.000032
1615	1.6059e+02	-7.8479	-85.997047	0.000182	1.824249	0.309036	0.000037
1616	1.6069e+02	-7.8278	-85.924378	0.000365	3.648499	0.618072	0.000073
1617	1.6079e+02	-7.8082	-85.884007	0.000203	2.026944	0.343374	0.000041
1618	1.6089e+02	-7.7878	-85.843636	0.000203	2.026944	0.343374	0.000041
1619	1.6099e+02	-7.7682	-85.787116	0.000284	2.837721	0.480723	0.000057
1620	1.6109e+02	-7.7489	-85.730596	0.000284	2.837721	0.480723	0.000057
1621	1.6119e+02	-7.7290	-85.702336	0.000142	1.418861	0.240361	0.000028
1622	1.6129e+02	-7.7094	-85.601408	0.000507	5.067359	0.858434	0.000101
1623	1.6139e+02	-7.6886	-85.544888	0.000284	2.837721	0.480723	0.000057
1624	1.6149e+02	-7.6681	-85.488368	0.000284	2.837721	0.480723	0.000057
1625	1.6159e+02	-7.6479	-85.464145	0.000122	1.216166	0.206024	0.000024
1626	1.6169e+02	-7.6294	-85.338994	0.000628	6.283525	1.064458	0.000126
1627	1.6179e+02	-7.6082	-85.371291	-0.000162	-1.621555	-0.274699	-0.000032
1628	1.6189e+02	-7.5894	-85.262288	0.000547	5.472748	0.927109	0.000110
1629	1.6199e+02	-7.5686	-85.234028	0.000142	1.418861	0.240361	0.000028
1630	1.6209e+02	-7.5497	-85.165397	0.000345	3.445804	0.583735	0.000069
1631	1.6219e+02	-7.5299	-85.088691	0.000385	3.851193	0.652410	0.000077
1632	1.6228e+02	-7.5098	-85.048320	0.000203	2.026944	0.343374	0.000041
1633	1.6238e+02	-7.4893	-84.991800	0.000284	2.837721	0.480723	0.000057
1634	1.6248e+02	-7.4696	-84.935280	0.000284	2.837721	0.480723	0.000057
1635	1.6258e+02	-7.4511	-84.878760	0.000284	2.837721	0.480723	0.000057
1636	1.6268e+02	-7.4304	-84.789943	0.000446	4.459276	0.755422	0.000089
1637	1.6278e+02	-7.4097	-84.717275	0.000365	3.648499	0.618072	0.000073
1638	1.6288e+02	-7.3901	-84.680941	0.000182	1.824249	0.309036	0.000037
1639	1.6298e+02	-7.3702	-84.620384	0.000304	3.040416	0.515060	0.000061
1640	1.6308e+02	-7.3506	-84.584049	0.000182	1.824249	0.309036	0.000037
1641	1.6318e+02	-7.3309	-84.471010	0.000568	5.675442	0.961446	0.000114
1642	1.6328e+02	-7.3107	-84.406415	0.000324	3.243110	0.549398	0.000065
1643	1.6338e+02	-7.2910	-84.345858	0.000304	3.040416	0.515060	0.000061
1644	1.6348e+02	-7.2716	-84.309524	0.000182	1.824249	0.309036	0.000037
1645	1.6358e+02	-7.2499	-84.204559	0.000527	5.270054	0.892771	0.000105
1646	1.6368e+02	-7.2302	-84.176299	0.000142	1.418861	0.240361	0.000028
1647	1.6378e+02	-7.2119	-84.095556	0.000405	4.053887	0.686747	0.000081
1648	1.6388e+02	-7.1912	-84.030962	0.000324	3.243110	0.549398	0.000065
1649	1.6398e+02	-7.1707	-83.901773	0.000649	6.486220	1.098795	0.000130
1650	1.6408e+02	-7.1513	-83.861402	0.000203	2.026944	0.343374	0.000041
1651	1.6418e+02	-7.1332	-83.788734	0.000365	3.648499	0.618072	0.000073
1652	1.6427e+02	-7.1111	-83.732214	0.000284	2.837721	0.480723	0.000057
1653	1.6437e+02	-7.0914	-83.607063	0.000628	6.283525	1.064458	0.000126
1654	1.6447e+02	-7.0718	-83.598988	0.000041	0.405389	0.068675	0.000008
1655	1.6457e+02	-7.0522	-83.502097	0.000486	4.864665	0.824097	0.000097
1656	1.6467e+02	-7.0309	-83.417317	0.000426	4.256582	0.721084	0.000085
1657	1.6477e+02	-7.0113	-83.344649	0.000365	3.648499	0.618072	0.000073
1658	1.6487e+02	-6.9923	-83.243720	0.000507	5.067359	0.858434	0.000101
1659	1.6497e+02	-6.9717	-83.199312	0.000223	2.229638	0.377711	0.000045
1660	1.6507e+02	-6.9519	-83.167015	0.000162	1.621555	0.274699	0.000032
1661	1.6517e+02	-6.9318	-83.049938	0.000588	5.878137	0.995783	0.000118
1662	1.6527e+02	-6.9128	-82.985344	0.000324	3.243110	0.549398	0.000065
1663	1.6537e+02	-6.8921	-82.928824	0.000284	2.837721	0.480723	0.000057
1664	1.6547e+02	-6.8729	-82.840007	0.000446	4.459276	0.755422	0.000089
1665	1.6557e+02	-6.8526	-82.722930	0.000588	5.878137	0.995783	0.000118
1666	1.6567e+02	-6.8320	-82.702744	0.000101	1.013472	0.171687	0.000020
1667	1.6577e+02	-6.8126	-82.646224	0.000284	2.837721	0.480723	0.000057
1668	1.6587e+02	-6.7920	-82.517036	0.000649	6.486220	1.098795	0.000130
1669	1.6597e+02	-6.7720	-82.468590	0.000243	2.432332	0.412048	0.000049
1670	1.6607e+02	-6.7524	-82.408033	0.000304	3.040416	0.515060	0.000061
1671	1.6616e+02	-6.7322	-82.331328	0.000385	3.851193	0.652410	0.000077
1672	1.6626e+02	-6.7130	-82.238474	0.000466	4.661970	0.789759	0.000093
1673	1.6636e+02	-6.6928	-82.157731	0.000405	4.053887	0.686747	0.000081
1674	1.6646e+02	-6.6729	-82.113322	0.000223	2.229638	0.377711	0.000045
1675	1.6656e+02	-6.6525	-82.024505	0.000446	4.459276	0.755422	0.000089
1676	1.6666e+02	-6.6328	-81.895317	0.000649	6.486220	1.098795	0.000130
1677	1.6676e+02	-6.6129	-81.830723	0.000324	3.243110	0.549398	0.000065
1678	1.6686e+02	-6.5935	-81.774203	0.000284	2.837721	0.480723	0.000057
1679	1.6696e+02	-6.5736	-81.733832	0.000203	2.026944	0.343374	0.000041
1680	1.6706e+02	-6.5530	-81.628866	0.000527	5.270054	0.892771	0.000105
1681	1.6716e+02	-6.5335	-81.568309	0.000304	3.040416	0.515060	0.000061
1682	1.6726e+02	-6.5134	-81.459306	0.000547	5.472748	0.927109	0.000110
1683	1.6736e+02	-6.4938	-81.366452	0.000466	4.661970	0.789759	0.000093
1684	1.6746e+02	-6.4738	-81.322044	0.000223	2.229638	0.377711	0.000045
1685	1.6756e+02	-6.4539	-81.257450	0.000324	3.243110	0.549398	0.000065
1686	1.6766e+02	-6.4334	-81.124224	0.000669	6.688914	1.133133	0.000134
1687	1.6776e+02	-6.4139	-81.051556	0.000365	3.648499	0.618072	0.000073
1688	1.6786e+02	-6.3939	-80.970813	0.000405	4.053887	0.686747	0.000081
1689	1.6796e+02	-6.3748	-80.918330	0.000264	2.635027	0.446386	0.000053
1690	1.6806e+02	-6.3541	-80.825476	0.000466	4.661970	0.789759	0.000093
1691	1.6816e+02	-6.3344	-80.748770	0.000385	3.851193	0.652410	0.000077
1692	1.6825e+02	-6.3150	-80.659953	0.000446	4.459276	0.755422	0.000089
1693	1.6835e+02	-6.2945	-80.607471	0.000264	2.635027	0.446386	0.000053
1694	1.6845e+02	-6.2743	-80.522691	0.000426	4.256582	0.721084	0.000085
1695	1.6855e+02	-6.2552	-80.454060	0.000345	3.445804	0.583735	0.000069
1696	1.6865e+02	-6.2344	-80.357168	0.000486	4.864665	0.824097	0.000097
1697	1.6875e+02	-6.2146	-80.244128	0.000568	5.675442	0.961446	0.000114
1698	1.6885e+02	-6.1948	-80.175497	0.000345	3.445804	0.583735	0.000069
1699	1.6895e+02	-6.1751	-80.070532	0.000527	5.270054	0.892771	0.000105
1700	1.6905e+02	-6.1552	-80.018049	0.000264	2.635027	0.446386	0.000053
1701	1.6915e+02	-6.1353	-79.864638	0.000770	7.702386	1.304820	0.000154
1702	1.6925e+02	-6.1151	-79.808118	0.000284	2.837721	0.480723	0.000057
1703	1.6935e+02	-6.0961	-79.739487	0.000345	3.445804	0.583735	0.000069
1704	1.6945e+02	-6.0742	-79.606261	0.000669	6.688914	1.133133	0.000134
1705	1.6955e+02	-6.0551	-79.545704	0.000304	3.040416	0.515060	0.000061
1706	1.6965e+02	-6.0349	-79.428627	0.000588	5.878137	0.995783	0.000118
1707	1.6975e+02	-6.0161	-79.359996	0.000345	3.445804	0.583735	0.000069
1708	1.6985e+02	-5.9966	-79.283290	0.000385	3.851193	0.652410	0.000077
1709	1.6995e+02	-5.9761	-79.202547	0.000405	4.053887	0.686747	0.000081
1710	1.7005e+02	-5.9566	-79.113730	0.000446	4.459276	0.755422	0.000089
1711	1.7015e+02	-5.9357	-79.028951	0.000426	4.256582	0.721084	0.000085
1712	1.7024e+02	-5.9167	-78.952245	0.000385	3.851193	0.652410	0.000077
1713	1.7034e+02	-5.8968	-78.855354	0.000486	4.864665	0.824097	0.000097
1714	1.7044e+02	-5.8761	-78.705980	0.000750	7.499692	1.270482	0.000150
1715	1.7054e+02	-5.8557	-78.685794	0.000101	1.013472	0.171687	0.000020
1716	1.7064e+02	-5.8364	-78.596977	0.000446	4.459276	0.755422	0.000089
1717	1.7074e+02	-5.8168	-78.471826	0.000628	6.283525	1.064458	0.000126
1718	1.7084e+02	-5.7959	-78.366860	0.000527	5.270054	0.892771	0.000105
1719	1.7094e+02	-5.7761	-78.298229	0.000345	3.445804	0.583735	0.000069
1720	1.7104e+02	-5.7563	-78.257858	0.000203	2.026944	0.343374	0.000041
1721	1.7114e+02	-5.7361	-78.148855	0.000547	5.472748	0.927109	0.000110
1722	1.7124e+02	-5.7167	-78.051964	0.000486	4.864665	0.824097	0.000097
1723	1.7134e+02	-5.6969	-77.959110	0.000466	4.661970	0.789759	0.000093
1724	1.7144e+02	-5.6764	-77.858181	0.000507	5.067359	0.858434	0.000101
1725	1.7154e+02	-5.6568	-77.757253	0.000507	5.067359	0.858434	0.000101
1726	1.7164e+02	-5.6369	-77.684584	0.000365	3.648499	0.618072	0.000073
1727	1.7174e+02	-5.6171	-77.563470	0.000608	6.080831	1.030121	0.000122
1728	1.7184e+02	-5.5972	-77.474653	0.000446	4.459276	0.755422	0.000089
1729	1.7194e+02	-5.5772	-77.393911	0.000405	4.053887	0.686747	0.000081
1730	1.7204e+02	-5.5574	-77.301057	0.000466	4.661970	0.789759	0.000093
1731	1.7213e+02	-5.5373	-77.240500	0.000304	3.040416	0.515060	0.000061
1732	1.7223e+02	-5.5174	-77.083051	0.000791	7.905080	1.339157	0.000158
1733	1.7233e+02	-5.4979	-77.030568	0.000264	2.635027	0.446386	0.000053
1734	1.7243e+02	-5.4776	-76.982123	0.000243	2.432332	0.412048	0.000049
1735	1.7253e+02	-5.4571	-76.824675	0.000791	7.905080	1.339157	0.000158
1736	1.7263e+02	-5.4372	-76.756043	0.000345	3.445804	0.583735	0.000069
1737	1.7273e+02	-5.4172	-76.647041	0.000547	5.472748	0.927109	0.000110
1738	1.7283e+02	-5.3987	-76.538038	0.000547	5.472748	0.927109	0.000110
1739	1.7293e+02	-5.3773	-76.481518	0.000284	2.837721	0.480723	0.000057
1740	1.7303e+02	-5.3578	-76.360404	0.000608	6.080831	1.030121	0.000122
1741	1.7313e+02	-5.3390	-76.275624	0.000426	4.256582	0.721084	0.000085
1742	1.7323e+02	-5.3183	-76.166621	0.000547	5.472748	0.927109	0.000110
1743	1.7333e+02	-5.2982	-76.061656	0.000527	5.270054	0.892771	0.000105
1744	1.7343e+02	-5.2789	-76.013210	0.000243	2.432332	0.412048	0.000049
1745	1.7353e+02	-5.2618	-75.936505	0.000385	3.851193	0.652410	0.000077
1746	1.7363e+02	-5.2383	-75.758871	0.000892	8.918552	1.510844	0.000179
1747	1.7373e+02	-5.2184	-75.682165	0.000385	3.851193	0.652410	0.000077
1748	1.7383e+02	-5.1986	-75.561051	0.000608	6.080831	1.030121	0.000122
1749	1.7393e+02	-5.1775	-75.540865	0.000101	1.013472	0.171687	0.000020
1750	1.7403e+02	-5.1591	-75.415714	0.000628	6.283525	1.064458	0.000126
1751	1.7413e+02	-5.1389	-75.290563	0.000628	6.283525	1.064458	0.000126
1752	1.7422e+02	-5.1193	-75.173486	0.000588	5.878137	0.995783	0.000118
1753	1.7432e+02	-5.0992	-75.080632	0.000466	4.661970	0.789759	0.000093
1754	1.7442e+02	-5.0788	-75.003926	0.000385	3.851193	0.652410	0.000077
1755	1.7452e+02	-5.0583	-74.898961	0.000527	5.270054	0.892771	0.000105
1756	1.7462e+02	-5.0391	-74.806107	0.000466	4.661970	0.789759	0.000093
1757	1.7472e+02	-5.0201	-74.713253	0.000466	4.661970	0.789759	0.000093
1758	1.7482e+02	-4.9998	-74.604250	0.000547	5.472748	0.927109	0.000110
1759	1.7492e+02	-4.9796	-74.475062	0.000649	6.486220	1.098795	0.000130
1760	1.7502e+02	-4.9594	-74.341836	0.000669	6.688914	1.133133	0.000134
1761	1.7512e+02	-4.9403	-74.253019	0.000446	4.459276	0.755422	0.000089
1762	1.7522e+02	-4.9191	-74.192462	0.000304	3.040416	0.515060	0.000061
1763	1.7532e+02	-4.8996	-74.055199	0.000689	6.891609	1.167470	0.000138
1764	1.7542e+02	-4.8801	-73.934085	0.000608	6.080831	1.030121	0.000122
1765	1.7552e+02	-4.8605	-73.853343	0.000405	4.053887	0.686747	0.000081
1766	1.7562e+02	-4.8399	-73.732229	0.000608	6.080831	1.030121	0.000122
1767	1.7572e+02	-4.8214	-73.631300	0.000507	5.067359	0.858434	0.000101
1768	1.7582e+02	-4.8006	-73.550557	0.000405	4.053887	0.686747	0.000081
1769	1.7592e+02	-4.7803	-73.397146	0.000770	7.702386	1.304820	0.000154
1770	1.7602e+02	-4.7609	-73.304292	0.000466	4.661970	0.789759	0.000093
1771	1.7612e+02	-4.7399	-73.231624	0.000365	3.648499	0.618072	0.000073
1772	1.7621e+02	-4.7213	-73.150881	0.000405	4.053887	0.686747	0.000081
1773	1.7631e+02	-4.7002	-73.037841	0.000568	5.675442	0.961446	0.000114
1774	1.7641e+02	-4.6811	-72.965173	0.000365	3.648499	0.618072	0.000073
1775	1.7651e+02	-4.6608	-72.803687	0.000811	8.107775	1.373494	0.000162
1776	1.7661e+02	-4.6413	-72.650276	0.000770	7.702386	1.304820	0.000154
1777	1.7671e+02	-4.6210	-72.565496	0.000426	4.256582	0.721084	0.000085
1778	1.7681e+02	-4.6011	-72.492828	0.000365	3.648499	0.618072	0.000073
1779	1.7691e+02	-4.5823	-72.399974	0.000466	4.661970	0.789759	0.000093
1780	1.7701e+02	-4.5622	-72.238488	0.000811	8.107775	1.373494	0.000162
1781	1.7711e+02	-4.5415	-72.202154	0.000182	1.824249	0.309036	0.000037
1782	1.7721e+02	-4.5211	-72.072966	0.000649	6.486220	1.098795	0.000130
1783	1.7731e+02	-4.5018	-71.939740	0.000669	6.688914	1.133133	0.000134
1784	1.7741e+02	-4.4814	-71.814589	0.000628	6.283525	1.064458	0.000126
1785	1.7751e+02	-4.4614	-71.749995	0.000324	3.243110	0.549398	0.000065
1786	1.7761e+02	-4.4409	-71.657141	0.000466	4.661970	0.789759	0.000093
1787	1.7771e+02	-4.4215	-71.523915	0.000669	6.688914	1.133133	0.000134
1788	1.7781e+02	-4.4019	-71.451247	0.000365	3.648499	0.618072	0.000073
1789	1.7791e+02	-4.3822	-71.297836	0.000770	7.702386	1.304820	0.000154
1790	1.7801e+02	-4.3620	-71.164610	0.000669	6.688914	1.133133	0.000134
1791	1.7810e+02	-4.3423	-71.075793	0.000446	4.459276	0.755422	0.000089
1792	1.7820e+02	-4.3217	-70.978902	0.000486	4.864665	0.824097	0.000097
1793	1.7830e+02	-4.3021	-70.890085	0.000446	4.459276	0.755422	0.000089
1794	1.7840e+02	-4.2825	-70.728600	0.000811	8.107775	1.373494	0.000162
1795	1.7850e+02	-4.2626	-70.659968	0.000345	3.445804	0.583735	0.000069
1796	1.7860e+02	-4.2413	-70.559040	0.000507	5.067359	0.858434	0.000101
1797	1.7870e+02	-4.2223	-70.437926	0.000608	6.080831	1.030121	0.000122
1798	1.7880e+02	-4.2026	-70.320849	0.000588	5.878137	0.995783	0.000118
1799	1.7890e+02	-4.1821	-70.256255	0.000324	3.243110	0.549398	0.000065
1800	1.7900e+02	-4.1626	-70.106881	0.000750	7.499692	1.270482	0.000150
1801	1.7910e+02	-4.1423	-69.989804	0.000588	5.878137	0.995783	0.000118
1802	1.7920e+02	-4.1229	-69.872727	0.000588	5.878137	0.995783	0.000118
1803	1.7930e+02	-4.1029	-69.820244	0.000264	2.635027	0.446386	0.000053
1804	1.7940e+02	-4.0821	-69.682981	0.000689	6.891609	1.167470	0.000138
1805	1.7950e+02	-4.0637	-69.565904	0.000588	5.878137	0.995783	0.000118
1806	1.7960e+02	-4.0437	-69.456902	0.000547	5.472748	0.927109	0.000110
1807	1.7970e+02	-4.0234	-69.307528	0.000750	7.499692	1.270482	0.000150
1808	1.7980e+02	-4.0028	-69.194488	0.000568	5.675442	0.961446	0.000114
1809	1.7990e+02	-3.9836	-69.101634	0.000466	4.661970	0.789759	0.000093
1810	1.8000e+02	-3.9632	-68.992631	0.000547	5.472748	0.927109	0.000110
1811	1.8009e+02	-3.9436	-68.875554	0.000588	5.878137	0.995783	0.000118
1812	1.8019e+02	-3.9238	-68.762514	0.000568	5.675442	0.961446	0.000114
1813	1.8029e+02	-3.9038	-68.693883	0.000345	3.445804	0.583735	0.000069
1814	1.8039e+02	-3.8839	-68.548546	0.000730	7.296997	1.236145	0.000146
1815	1.8049e+02	-3.8635	-68.419358	0.000649	6.486220	1.098795	0.000130
1816	1.8059e+02	-3.8434	-68.261910	0.000791	7.905080	1.339157	0.000158
1817	1.8069e+02	-3.8245	-68.193278	0.000345	3.445804	0.583735	0.000069
1818	1.8079e+02	-3.8040	-68.096387	0.000486	4.864665	0.824097	0.000097
1819	1.8089e+02	-3.7839	-67.951050	0.000730	7.296997	1.236145	0.000146
1820	1.8099e+02	-3.7649	-67.866270	0.000426	4.256582	0.721084	0.000085
1821	1.8109e+02	-3.7443	-67.769379	0.000486	4.864665	0.824097	0.000097
1822	1.8119e+02	-3.7245	-67.615968	0.000770	7.702386	1.304820	0.000154
1823	1.8129e+02	-3.7048	-67.539262	0.000385	3.851193	0.652410	0.000077
1824	1.8139e+02	-3.6850	-67.373740	0.000831	8.310469	1.407832	0.000166
1825	1.8149e+02	-3.6652	-67.309146	0.000324	3.243110	0.549398	0.000065
1826	1.8159e+02	-3.6449	-67.139586	0.000851	8.513164	1.442169	0.000170
1827	1.8169e+02	-3.6252	-67.026546	0.000568	5.675442	0.961446	0.000114
1828	1.8179e+02	-3.6057	-66.965989	0.000304	3.040416	0.515060	0.000061
1829	1.8189e+02	-3.5851	-66.788355	0.000892	8.918552	1.510844	0.000179
1830	1.8199e+02	-3.5654	-66.731835	0.000284	2.837721	0.480723	0.000057
1831	1.8209e+02	-3.5463	-66.594573	0.000689	6.891609	1.167470	0.000138
1832	1.8218e+02	-3.5254	-66.461347	0.000669	6.688914	1.133133	0.000134
1833	1.8228e+02	-3.5051	-66.376567	0.000426	4.256582	0.721084	0.000085
1834	1.8238e+02	-3.4845	-66.283713	0.000466	4.661970	0.789759	0.000093
1835	1.8248e+02	-3.4656	-66.146450	0.000689	6.891609	1.167470	0.000138
1836	1.8258e+02	-3.4464	-66.037448	0.000547	5.472748	0.927109	0.000110
1837	1.8268e+02	-3.4256	-65.964779	0.000365	3.648499	0.618072	0.000073
1838	1.8278e+02	-3.4061	-65.766960	0.000993	9.932024	1.682530	0.000199
1839	1.8288e+02	-3.3860	-65.706403	0.000304	3.040416	0.515060	0.000061
1840	1.8298e+02	-3.3661	-65.561066	0.000730	7.296997	1.236145	0.000146
1841	1.8308e+02	-3.3457	-65.480323	0.000405	4.053887	0.686747	0.000081
1842	1.8318e+02	-3.3258	-65.371320	0.000547	5.472748	0.927109	0.000110
1843	1.8328e+02	-3.3060	-65.246169	0.000628	6.283525	1.064458	0.000126
1844	1.8338e+02	-3.2861	-65.084684	0.000811	8.107775	1.373494	0.000162
1845	1.8348e+02	-3.2666	-65.028164	0.000284	2.837721	0.480723	0.000057
1846	1.8358e+02	-3.2462	-64.927236	0.000507	5.067359	0.858434	0.000101
1847	1.8368e+02	-3.2260	-64.745564	0.000912	9.121247	1.545181	0.000183
1848	1.8378e+02	-3.2063	-64.636562	0.000547	5.472748	0.927109	0.000110
1849	1.8388e+02	-3.1863	-64.551782	0.000426	4.256582	0.721084	0.000085
1850	1.8398e+02	-3.1670	-64.378185	0.000872	8.715858	1.476506	0.000174
1851	1.8407e+02	-3.1469	-64.317628	0.000304	3.040416	0.515060	0.000061
1852	1.8417e+02	-3.1262	-64.188440	0.000649	6.486220	1.098795	0.000130
1853	1.8427e+02	-3.1070	-64.079437	0.000547	5.472748	0.927109	0.000110
1854	1.8437e+02	-3.0864	-63.962360	0.000588	5.878137	0.995783	0.000118
1855	1.8447e+02	-3.0673	-63.817023	0.000730	7.296997	1.236145	0.000146
1856	1.8457e+02	-3.0469	-63.679761	0.000689	6.891609	1.167470	0.000138
1857	1.8467e+02	-3.0264	-63.562684	0.000588	5.878137	0.995783	0.000118
1858	1.8477e+02	-3.0065	-63.469830	0.000466	4.661970	0.789759	0.000093
1859	1.8487e+02	-2.9867	-63.376975	0.000466	4.661970	0.789759	0.000093
1860	1.8497e+02	-2.9672	-63.231638	0.000730	7.296997	1.236145	0.000146
1861	1.8507e+02	-2.9474	-63.150896	0.000405	4.053887	0.686747	0.000081
1862	1.8517e+02	-2.9274	-62.973262	0.000892	8.918552	1.510844	0.000179
1863	1.8527e+02	-2.9078	-62.856185	0.000588	5.878137	0.995783	0.000118
1864	1.8537e+02	-2.8883	-62.779479	0.000385	3.851193	0.652410	0.000077
1865	1.8547e+02	-2.8680	-62.638180	0.000709	7.094303	1.201807	0.000142
1866	1.8557e+02	-2.8471	-62.508991	0.000649	6.486220	1.098795	0.000130
1867	1.8567e+02	-2.8278	-62.395951	0.000568	5.675442	0.961446	0.000114
1868	1.8577e+02	-2.8075	-62.250615	0.000730	7.296997	1.236145	0.000146
1869	1.8587e+02	-2.7878	-62.133538	0.000588	5.878137	0.995783	0.000118
1870	1.8597e+02	-2.7690	-62.020498	0.000568	5.675442	0.961446	0.000114
1871	1.8606e+02	-2.7486	-61.903421	0.000588	5.878137	0.995783	0.000118
1872	1.8616e+02	-2.7285	-61.802492	0.000507	5.067359	0.858434	0.000101
1873	1.8626e+02	-2.7081	-61.681378	0.000608	6.080831	1.030121	0.000122
1874	1.8636e+02	-2.6874	-61.544116	0.000689	6.891609	1.167470	0.000138
1875	1.8646e+02	-2.6689	-61.398779	0.000730	7.296997	1.236145	0.000146
1876	1.8656e+02	-2.6478	-61.277665	0.000608	6.080831	1.030121	0.000122
1877	1.8666e+02	-2.6288	-61.148476	0.000649	6.486220	1.098795	0.000130
1878	1.8676e+02	-2.6085	-61.019288	0.000649	6.486220	1.098795	0.000130
1879	1.8686e+02	-2.5881	-60.869914	0.000750	7.499692	1.270482	0.000150
1880	1.8696e+02	-2.5687	-60.773023	0.000486	4.864665	0.824097	0.000097
1881	1.8706e+02	-2.5482	-60.627686	0.000730	7.296997	1.236145	0.000146
1882	1.8716e+02	-2.5284	-60.579240	0.000243	2.432332	0.412048	0.000049
1883	1.8726e+02	-2.5087	-60.425829	0.000770	7.702386	1.304820	0.000154
1884	1.8736e+02	-2.4893	-60.284529	0.000709	7.094303	1.201807	0.000142
1885	1.8746e+02	-2.4696	-60.143230	0.000709	7.094303	1.201807	0.000142
1886	1.8756e+02	-2.4493	-60.066524	0.000385	3.851193	0.652410	0.000077
1887	1.8766e+02	-2.4297	-59.965596	0.000507	5.067359	0.858434	0.000101
1888	1.8776e+02	-2.4112	-59.804110	0.000811	8.107775	1.373494	0.000162
1889	1.8786e+02	-2.3901	-59.666848	0.000689	6.891609	1.167470	0.000138
1890	1.8796e+02	-2.3698	-59.521511	0.000730	7.296997	1.236145	0.000146
1891	1.8806e+02	-2.3503	-59.440768	0.000405	4.053887	0.686747	0.000081
1892	1.8815e+02	-2.3299	-59.295431	0.000730	7.296997	1.236145	0.000146
1893	1.8825e+02	-2.3103	-59.162206	0.000669	6.688914	1.133133	0.000134
1894	1.8835e+02	-2.2910	-59.033017	0.000649	6.486220	1.098795	0.000130
1895	1.8845e+02	-2.2695	-58.895755	0.000689	6.891609	1.167470	0.000138
1896	1.8855e+02	-2.2513	-58.810975	0.000426	4.256582	0.721084	0.000085
1897	1.8865e+02	-2.2300	-58.669675	0.000709	7.094303	1.201807	0.000142
1898	1.8875e+02	-2.2108	-58.500115	0.000851	8.513164	1.442169	0.000170
1899	1.8885e+02	-2.1915	-58.415336	0.000426	4.256582	0.721084	0.000085
1900	1.8895e+02	-2.1712	-58.249813	0.000831	8.310469	1.407832	0.000166
1901	1.8905e+02	-2.1510	-58.160996	0.000446	4.459276	0.755422	0.000089
1902	1.8915e+02	-2.1309	-58.011622	0.000750	7.499692	1.270482	0.000150
1903	1.8925e+02	-2.1117	-57.906656	0.000527	5.270054	0.892771	0.000105
1904	1.8935e+02	-2.0908	-57.757282	0.000750	7.499692	1.270482	0.000150
1905	1.8945e+02	-2.0708	-57.624057	0.000669	6.688914	1.133133	0.000134
1906	1.8955e+02	-2.0516	-57.498906	0.000628	6.283525	1.064458	0.000126
1907	1.8965e+02	-2.0299	-57.393940	0.000527	5.270054	0.892771	0.000105
1908	1.8975e+02	-2.0114	-57.293012	0.000507	5.067359	0.858434	0.000101
1909	1.8985e+02	-1.9911	-57.159786	0.000669	6.688914	1.133133	0.000134
1910	1.8995e+02	-1.9707	-57.062895	0.000486	4.864665	0.824097	0.000097
1911	1.9004e+02	-1.9519	-56.873150	0.000953	9.526635	1.613856	0.000191
1912	1.9014e+02	-1.9316	-56.743961	0.000649	6.486220	1.098795	0.000130
1913	1.9024e+02	-1.9113	-56.626884	0.000588	5.878137	0.995783	0.000118
1914	1.9034e+02	-1.8916	-56.453288	0.000872	8.715858	1.476506	0.000174
1915	1.9044e+02	-1.8726	-56.352359	0.000507	5.067359	0.858434	0.000101
1916	1.9054e+02	-1.8517	-56.231245	0.000608	6.080831	1.030121	0.000122
1917	1.9064e+02	-1.8321	-56.106094	0.000628	6.283525	1.064458	0.000126
1918	1.9074e+02	-1.8121	-55.932497	0.000872	8.715858	1.476506	0.000174
1919	1.9084e+02	-1.7923	-55.815420	0.000588	5.878137	0.995783	0.000118
1920	1.9094e+02	-1.7727	-55.670083	0.000730	7.296997	1.236145	0.000146
1921	1.9104e+02	-1.7517	-55.581266	0.000446	4.459276	0.755422	0.000089
1922	1.9114e+02	-1.7328	-55.415744	0.000831	8.310469	1.407832	0.000166
1923	1.9124e+02	-1.7129	-55.270407	0.000730	7.296997	1.236145	0.000146
1924	1.9134e+02	-1.6918	-55.157367	0.000568	5.675442	0.961446	0.000114
1925	1.9144e+02	-1.6724	-54.975696	0.000912	9.121247	1.545181	0.000183
1926	1.9154e+02	-1.6527	-54.858619	0.000588	5.878137	0.995783	0.000118
1927	1.9164e+02	-1.6338	-54.737505	0.000608	6.080831	1.030121	0.000122
1928	1.9174e+02	-1.6125	-54.608317	0.000649	6.486220	1.098795	0.000130
1929	1.9184e+02	-1.5927	-54.495277	0.000568	5.675442	0.961446	0.000114
1930	1.9194e+02	-1.5733	-54.341866	0.000770	7.702386	1.304820	0.000154
1931	1.9203e+02	-1.5533	-54.232863	0.000547	5.472748	0.927109	0.000110
1932	1.9213e+02	-1.5329	-54.063303	0.000851	8.513164	1.442169	0.000170
1933	1.9223e+02	-1.5131	-53.926041	0.000689	6.891609	1.167470	0.000138
1934	1.9233e+02	-1.4933	-53.784741	0.000709	7.094303	1.201807	0.000142
1935	1.9243e+02	-1.4732	-53.635367	0.000750	7.499692	1.270482	0.000150
1936	1.9253e+02	-1.4530	-53.510216	0.000628	6.283525	1.064458	0.000126
1937	1.9263e+02	-1.4333	-53.368916	0.000709	7.094303	1.201807	0.000142
1938	1.9273e+02	-1.4134	-53.231653	0.000689	6.891609	1.167470	0.000138
1939	1.9283e+02	-1.3937	-53.130725	0.000507	5.067359	0.858434	0.000101
1940	1.9293e+02	-1.3742	-52.989425	0.000709	7.094303	1.201807	0.000142
1941	1.9303e+02	-1.3539	-52.852163	0.000689	6.891609	1.167470	0.000138
1942	1.9313e+02	-1.3334	-52.682603	0.000851	8.513164	1.442169	0.000170
1943	1.9323e+02	-1.3139	-52.581674	0.000507	5.067359	0.858434	0.000101
1944	1.9333e+02	-1.2942	-52.484783	0.000486	4.864665	0.824097	0.000097
1945	1.9343e+02	-1.2738	-52.266778	0.001095	10.945496	1.854217	0.000219
1946	1.9353e+02	-1.2550	-52.153738	0.000568	5.675442	0.961446	0.000114
1947	1.9363e+02	-1.2341	-52.052810	0.000507	5.067359	0.858434	0.000101
1948	1.9373e+02	-1.2144	-51.850953	0.001013	10.134718	1.716868	0.000203
1949	1.9383e+02	-1.1946	-51.745987	0.000527	5.270054	0.892771	0.000105
1950	1.9393e+02	-1.1740	-51.628910	0.000588	5.878137	0.995783	0.000118
1951	1.9403e+02	-1.1553	-51.495685	0.000669	6.688914	1.133133	0.000134
1952	1.9412e+02	-1.1359	-51.346311	0.000750	7.499692	1.270482	0.000150
1953	1.9422e+02	-1.1147	-51.225197	0.000608	6.080831	1.030121	0.000122
1954	1.9432e+02	-1.0953	-51.059674	0.000831	8.310469	1.407832	0.000166
1955	1.9442e+02	-1.0741	-50.974894	0.000426	4.256582	0.721084	0.000085
1956	1.9452e+02	-1.0552	-50.805335	0.000851	8.513164	1.442169	0.000170
1957	1.9462e+02	-1.0341	-50.676146	0.000649	6.486220	1.098795	0.000130
1958	1.9472e+02	-1.0152	-50.534847	0.000709	7.094303	1.201807	0.000142
1959	1.9482e+02	-0.9949	-50.349138	0.000932	9.323941	1.579518	0.000187
1960	1.9492e+02	-0.9747	-50.244173	0.000527	5.270054	0.892771	0.000105
1961	1.9502e+02	-0.9548	-50.139207	0.000527	5.270054	0.892771	0.000105
1962	1.9512e+02	-0.9364	-49.961573	0.000892	8.918552	1.510844	0.000179
1963	1.9522e+02	-0.9156	-49.787976	0.000872	8.715858	1.476506	0.000174
1964	1.9532e+02	-0.8955	-49.666862	0.000608	6.080831	1.030121	0.000122
1965	1.9542e+02	-0.8758	-49.557860	0.000547	5.472748	0.927109	0.000110
1966	1.9552e+02	-0.8553	-49.440783	0.000588	5.878137	0.995783	0.000118
1967	1.9562e+02	-0.8350	-49.283335	0.000791	7.905080	1.339157	0.000158
1968	1.9572e+02	-0.8168	-49.170295	0.000568	5.675442	0.961446	0.000114
1969	1.9582e+02	-0.7952	-49.016884	0.000770	7.702386	1.304820	0.000154
1970	1.9592e+02	-0.7759	-48.879621	0.000689	6.891609	1.167470	0.000138
1971	1.9601e+02	-0.7558	-48.738321	0.000709	7.094303	1.201807	0.000142
1972	1.9611e+02	-0.7359	-48.592984	0.000730	7.296997	1.236145	0.000146
1973	1.9621e+02	-0.7162	-48.443610	0.000750	7.499692	1.270482	0.000150
1974	1.9631e+02	-0.6969	-48.286162	0.000791	7.905080	1.339157	0.000158
1975	1.9641e+02	-0.6771	-48.181196	0.000527	5.270054	0.892771	0.000105
1976	1.9651e+02	-0.6571	-48.015674	0.000831	8.310469	1.407832	0.000166
1977	1.9661e+02	-0.6366	-47.910708	0.000527	5.270054	0.892771	0.000105
1978	1.9671e+02	-0.6162	-47.741149	0.000851	8.513164	1.442169	0.000170
1979	1.9681e+02	-0.5963	-47.620035	0.000608	6.080831	1.030121	0.000122
1980	1.9691e+02	-0.5767	-47.478735	0.000709	7.094303	1.201807	0.000142
1981	1.9701e+02	-0.5567	-47.341472	0.000689	6.891609	1.167470	0.000138
1982	1.9711e+02	-0.5365	-47.212284	0.000649	6.486220	1.098795	0.000130
1983	1.9721e+02	-0.5172	-47.050798	0.000811	8.107775	1.373494	0.000162
1984	1.9731e+02	-0.4971	-46.925647	0.000628	6.283525	1.064458	0.000126
1985	1.9741e+02	-0.4777	-46.780310	0.000730	7.296997	1.236145	0.000146
1986	1.9751e+02	-0.4580	-46.663233	0.000588	5.878137	0.995783	0.000118
1987	1.9761e+02	-0.4379	-46.469451	0.000973	9.729330	1.648193	0.000195
1988	1.9771e+02	-0.4173	-46.348337	0.000608	6.080831	1.030121	0.000122
1989	1.9781e+02	-0.3980	-46.178777	0.000851	8.513164	1.442169	0.000170
1990	1.9791e+02	-0.3778	-46.077849	0.000507	5.067359	0.858434	0.000101
1991	1.9800e+02	-0.3579	-45.888103	0.000953	9.526635	1.613856	0.000191
1992	1.9810e+02	-0.3371	-45.803324	0.000426	4.256582	0.721084	0.000085
1993	1.9820e+02	-0.3170	-45.666061	0.000689	6.891609	1.167470	0.000138
1994	1.9830e+02	-0.2974	-45.528798	0.000689	6.891609	1.167470	0.000138
1995	1.9840e+02	-0.2781	-45.359239	0.000851	8.513164	1.442169	0.000170
1996	1.9850e+02	-0.2574	-45.262347	0.000486	4.864665	0.824097	0.000097
1997	1.9860e+02	-0.2383	-45.092788	0.000851	8.513164	1.442169	0.000170
1998	1.9870e+02	-0.2174	-44.943414	0.000750	7.499692	1.270482	0.000150
1999	1.9880e+02	-0.1980	-44.818262	0.000628	6.283525	1.064458	0.000126
2000	1.9890e+02	-0.1776	-44.685037	0.000669	6.688914	1.133133	0.000134
2001	1.9900e+02	-0.1585	-44.563923	0.000608	6.080831	1.030121	0.000122
2002	1.9910e+02	-0.1378	-44.410512	0.000770	7.702386	1.304820	0.000154
2003	1.9920e+02	-0.1190	-44.253063	0.000791	7.905080	1.339157	0.000158
2004	1.9930e+02	-0.0992	-44.119838	0.000669	6.688914	1.133133	0.000134
2005	1.9940e+02	-0.0793	-44.002761	0.000588	5.878137	0.995783	0.000118
2006	1.9950e+02	-0.0590	-43.913944	0.000446	4.459276	0.755422	0.000089
2007	1.9960e+02	-0.0393	-43.720161	0.000973	9.729330	1.648193	0.000195
2008	1.9970e+02	-0.0194	-43.558676	0.000811	8.107775	1.373494	0.000162
2009	1.9980e+02	0.0003	-43.457748	0.000811	8.107775	1.373494	0.000101

PMax (uC/cm2):	5.88e+01
Pr (uC/cm2):	5.94e+00
-Pr (uC/cm2):	-7.16e+01
PLoss (uC/cm2):	-7.16e+01
-Vc:	-8.37e-01
C (Max-Eff) (nF):	5.89e-01
K (Eff):	9.97e+02
Vert. (+/-Pr) Shift (uC/cm2):	-3.28e+01
Offset (uC/cm2):	-2.81e+01

A (Loop Area - uC/cm2·Volts):	-3.97e-01



Hysteresis Version: 5.48.1 - Radiant Technologies, Inc., 1999 - 9/12/24

