»»»»»»»»»»»»»»»»»»»»»»»»»»»»»»»»»»»» Hysteresis ««««««««««««««««««««««««««««««««««««
»»»  Executed Version:	5.48.1
»»»  Vision Version:	5.48.4 (R)
»»»  Vision Compiled:	9/18/24
»»»  Driver Version:	5.47.0
»»»  Windows Version:	Windows 8 or 8.1
»»»  Processor Information:	x86 (AMD or Intel) - 32 Processors
»»»  Tester Name:	PMF21124-494 (100V)
»»»  Tester S/N:	PMF21124-494
»»»  Internal Amp Type:	100V RevK 270k
»»»  Internal Amp S/N:	iAB2-596/K     
»»»  Execution Count:	1
»»»»»»»»»»»»»»»»»»»»»»»»»»»»»»»»»»»»»»»»»»««««««««««««««««««««««««««««««««««««««««««

Stored:	7/7/2025 - 15:24:0
Configured:	07/07/25 01:27:50 PM
Executed:	07/07/25 03:23:31 PM

»»»»»»»»»»»»»»»»»»»»»»»»»»»»»»»»»»» Sample Info ««««««««««««««««««««««««««««««««««««
Sample Name:	
Lot Name:	
Wafer Name:	
Die Row/Column:	0/0
Capacitor Number:	0
Sample Area (cm2):	1.00e-04
Sample Thickness (microns):	1.50e-01

Amplifier:	Internal

»»»»»»»»»»»»»»»»»»»»»»»»»»»»»»»»»»» Tester Info «««««««««««««««««««««««««««««««««««
Tester Name:	PMF21124-494 (100V)
Tester Serial Number:	PMF21124-494
Return Signal Amp. Level:	0.19 [Index: 3]

»»»»»»»»»»»»»»»»»»»»»»»»»»»»»»»» Hysteresis Info ««««««««««««««««««««««««««««««««««
Task Name:	Hyst-528
Volts:	10.00
Field:	666.67 (kV/cm)
DCBias:	0.00
DCField:	0.00 (kV/cm)
Hysteresis Period (ms):	2.00e+02
Preset:	Enabled
Preset Delay (ms):	1.00e+03
Profile:	Standard Bipolar

»»»»»»»»»»»»»»»»»»»»»»»»»»»»»»»»»»»»»» Data «««««««««««««««««««««««««««««««««««««««
Points:	2009

Valid Data

Point	Time (ms)	Drive Voltage	Measured Polarization (uC/cm2)	Capacitance (uF)	Normalized Capacitance (uF/cm2)	Dielectric Constant	Instantaneous Current (mA)
   1	0.0000e+00	0.0002	35.413755	0.000547	5.472748	0.927109	0.000110
   2	9.9500e-02	0.0198	35.522757	0.000547	5.472748	0.927109	0.000110
   3	1.9900e-01	0.0388	35.684243	0.000811	8.107775	1.373494	0.000162
   4	2.9850e-01	0.0595	35.760948	0.000385	3.851193	0.652410	0.000077
   5	3.9800e-01	0.0784	35.910322	0.000750	7.499692	1.270482	0.000150
   6	4.9750e-01	0.0985	36.039511	0.000649	6.486220	1.098795	0.000130
   7	5.9700e-01	0.1183	36.152551	0.000568	5.675442	0.961446	0.000114
   8	6.9650e-01	0.1381	36.221182	0.000345	3.445804	0.583735	0.000069
   9	7.9600e-01	0.1585	36.346333	0.000628	6.283525	1.064458	0.000126
  10	8.9550e-01	0.1789	36.471484	0.000628	6.283525	1.064458	0.000126
  11	9.9500e-01	0.1984	36.604710	0.000669	6.688914	1.133133	0.000134
  12	1.0945e+00	0.2177	36.733898	0.000649	6.486220	1.098795	0.000130
  13	1.1940e+00	0.2388	36.818678	0.000426	4.256582	0.721084	0.000085
  14	1.2935e+00	0.2580	36.951903	0.000669	6.688914	1.133133	0.000134
  15	1.3930e+00	0.2780	37.077055	0.000628	6.283525	1.064458	0.000126
  16	1.4925e+00	0.2978	37.165872	0.000446	4.459276	0.755422	0.000089
  17	1.5920e+00	0.3181	37.295060	0.000649	6.486220	1.098795	0.000130
  18	1.6915e+00	0.3380	37.436360	0.000709	7.094303	1.201807	0.000142
  19	1.7910e+00	0.3584	37.492880	0.000284	2.837721	0.480723	0.000057
  20	1.8905e+00	0.3773	37.646291	0.000770	7.702386	1.304820	0.000154
  21	1.9900e+00	0.3981	37.787591	0.000709	7.094303	1.201807	0.000142
  22	2.0895e+00	0.4169	37.876407	0.000446	4.459276	0.755422	0.000089
  23	2.1890e+00	0.4376	37.965224	0.000446	4.459276	0.755422	0.000089
  24	2.2885e+00	0.4583	38.142858	0.000892	8.918552	1.510844	0.000179
  25	2.3880e+00	0.4787	38.215527	0.000365	3.648499	0.618072	0.000073
  26	2.4875e+00	0.4974	38.377012	0.000811	8.107775	1.373494	0.000162
  27	2.5870e+00	0.5167	38.518312	0.000709	7.094303	1.201807	0.000142
  28	2.6865e+00	0.5376	38.619240	0.000507	5.067359	0.858434	0.000101
  29	2.7860e+00	0.5569	38.732280	0.000568	5.675442	0.961446	0.000114
  30	2.8855e+00	0.5772	38.825134	0.000466	4.661970	0.789759	0.000093
  31	2.9850e+00	0.5980	38.917989	0.000466	4.661970	0.789759	0.000093
  32	3.0845e+00	0.6165	39.087548	0.000851	8.513164	1.442169	0.000170
  33	3.1840e+00	0.6373	39.200588	0.000568	5.675442	0.961446	0.000114
  34	3.2835e+00	0.6563	39.285368	0.000426	4.256582	0.721084	0.000085
  35	3.3830e+00	0.6771	39.454928	0.000851	8.513164	1.442169	0.000170
  36	3.4825e+00	0.6966	39.588153	0.000669	6.688914	1.133133	0.000134
  37	3.5820e+00	0.7170	39.685044	0.000486	4.864665	0.824097	0.000097
  38	3.6815e+00	0.7365	39.781936	0.000486	4.864665	0.824097	0.000097
  39	3.7810e+00	0.7565	39.939384	0.000791	7.905080	1.339157	0.000158
  40	3.8805e+00	0.7756	40.056461	0.000588	5.878137	0.995783	0.000118
  41	3.9800e+00	0.7973	40.185649	0.000649	6.486220	1.098795	0.000130
  42	4.0795e+00	0.8157	40.294652	0.000547	5.472748	0.927109	0.000110
  43	4.1790e+00	0.8368	40.419803	0.000628	6.283525	1.064458	0.000126
  44	4.2785e+00	0.8567	40.544954	0.000628	6.283525	1.064458	0.000126
  45	4.3780e+00	0.8765	40.662031	0.000588	5.878137	0.995783	0.000118
  46	4.4775e+00	0.8961	40.787182	0.000628	6.283525	1.064458	0.000126
  47	4.5770e+00	0.9164	40.912334	0.000628	6.283525	1.064458	0.000126
  48	4.6765e+00	0.9351	41.029411	0.000588	5.878137	0.995783	0.000118
  49	4.7760e+00	0.9566	41.158599	0.000649	6.486220	1.098795	0.000130
  50	4.8755e+00	0.9760	41.235304	0.000385	3.851193	0.652410	0.000077
  51	4.9750e+00	0.9959	41.356419	0.000608	6.080831	1.030121	0.000122
  52	5.0745e+00	1.0161	41.469458	0.000568	5.675442	0.961446	0.000114
  53	5.1740e+00	1.0357	41.582498	0.000568	5.675442	0.961446	0.000114
  54	5.2735e+00	1.0551	41.756095	0.000872	8.715858	1.476506	0.000174
  55	5.3730e+00	1.0748	41.857023	0.000507	5.067359	0.858434	0.000101
  56	5.4725e+00	1.0954	41.982175	0.000628	6.283525	1.064458	0.000126
  57	5.5720e+00	1.1149	42.135586	0.000770	7.702386	1.304820	0.000154
  58	5.6715e+00	1.1349	42.268811	0.000669	6.688914	1.133133	0.000134
  59	5.7710e+00	1.1554	42.341480	0.000365	3.648499	0.618072	0.000073
  60	5.8705e+00	1.1754	42.466631	0.000628	6.283525	1.064458	0.000126
  61	5.9700e+00	1.1958	42.583708	0.000588	5.878137	0.995783	0.000118
  62	6.0695e+00	1.2152	42.680599	0.000486	4.864665	0.824097	0.000097
  63	6.1690e+00	1.2352	42.886493	0.001034	10.337413	1.751205	0.000207
  64	6.2685e+00	1.2547	42.959161	0.000365	3.648499	0.618072	0.000073
  65	6.3680e+00	1.2748	43.088350	0.000649	6.486220	1.098795	0.000130
  66	6.4675e+00	1.2942	43.229649	0.000709	7.094303	1.201807	0.000142
  67	6.5670e+00	1.3142	43.318466	0.000446	4.459276	0.755422	0.000089
  68	6.6665e+00	1.3340	43.439581	0.000608	6.080831	1.030121	0.000122
  69	6.7660e+00	1.3536	43.572806	0.000669	6.688914	1.133133	0.000134
  70	6.8655e+00	1.3738	43.697957	0.000628	6.283525	1.064458	0.000126
  71	6.9650e+00	1.3932	43.831183	0.000669	6.688914	1.133133	0.000134
  72	7.0645e+00	1.4137	43.948260	0.000588	5.878137	0.995783	0.000118
  73	7.1640e+00	1.4341	44.105708	0.000791	7.905080	1.339157	0.000158
  74	7.2635e+00	1.4520	44.210673	0.000527	5.270054	0.892771	0.000105
  75	7.3630e+00	1.4738	44.360047	0.000750	7.499692	1.270482	0.000150
  76	7.4625e+00	1.4928	44.505384	0.000730	7.296997	1.236145	0.000146
  77	7.5620e+00	1.5136	44.642647	0.000689	6.891609	1.167470	0.000138
  78	7.6615e+00	1.5330	44.743575	0.000507	5.067359	0.858434	0.000101
  79	7.7610e+00	1.5528	44.844504	0.000507	5.067359	0.858434	0.000101
  80	7.8605e+00	1.5730	45.026175	0.000912	9.121247	1.545181	0.000183
  81	7.9600e+00	1.5924	45.106918	0.000405	4.053887	0.686747	0.000081
  82	8.0595e+00	1.6119	45.252254	0.000730	7.296997	1.236145	0.000146
  83	8.1590e+00	1.6330	45.389517	0.000689	6.891609	1.167470	0.000138
  84	8.2585e+00	1.6518	45.502557	0.000568	5.675442	0.961446	0.000114
  85	8.3580e+00	1.6725	45.599448	0.000486	4.864665	0.824097	0.000097
  86	8.4575e+00	1.6929	45.724599	0.000628	6.283525	1.064458	0.000126
  87	8.5570e+00	1.7124	45.926456	0.001013	10.134718	1.716868	0.000203
  88	8.6565e+00	1.7321	46.035459	0.000547	5.472748	0.927109	0.000110
  89	8.7560e+00	1.7519	46.152536	0.000588	5.878137	0.995783	0.000118
  90	8.8555e+00	1.7720	46.305947	0.000770	7.702386	1.304820	0.000154
  91	8.9550e+00	1.7916	46.410912	0.000527	5.270054	0.892771	0.000105
  92	9.0545e+00	1.8126	46.548175	0.000689	6.891609	1.167470	0.000138
  93	9.1540e+00	1.8320	46.697549	0.000750	7.499692	1.270482	0.000150
  94	9.2535e+00	1.8523	46.798477	0.000507	5.067359	0.858434	0.000101
  95	9.3530e+00	1.8717	46.951889	0.000770	7.702386	1.304820	0.000154
  96	9.4525e+00	1.8919	47.048780	0.000486	4.864665	0.824097	0.000097
  97	9.5520e+00	1.9118	47.182005	0.000669	6.688914	1.133133	0.000134
  98	9.6515e+00	1.9316	47.351565	0.000851	8.513164	1.442169	0.000170
  99	9.7510e+00	1.9514	47.464605	0.000568	5.675442	0.961446	0.000114
 100	9.8505e+00	1.9710	47.609942	0.000730	7.296997	1.236145	0.000146
 101	9.9500e+00	1.9910	47.751242	0.000709	7.094303	1.201807	0.000142
 102	1.0050e+01	2.0113	47.860244	0.000547	5.472748	0.927109	0.000110
 103	1.0149e+01	2.0312	47.989433	0.000649	6.486220	1.098795	0.000130
 104	1.0248e+01	2.0512	48.126695	0.000689	6.891609	1.167470	0.000138
 105	1.0348e+01	2.0720	48.272032	0.000730	7.296997	1.236145	0.000146
 106	1.0447e+01	2.0905	48.389109	0.000588	5.878137	0.995783	0.000118
 107	1.0547e+01	2.1114	48.510223	0.000608	6.080831	1.030121	0.000122
 108	1.0646e+01	2.1312	48.643449	0.000669	6.688914	1.133133	0.000134
 109	1.0746e+01	2.1507	48.768600	0.000628	6.283525	1.064458	0.000126
 110	1.0845e+01	2.1714	48.901825	0.000669	6.688914	1.133133	0.000134
 111	1.0945e+01	2.1909	49.047162	0.000730	7.296997	1.236145	0.000146
 112	1.1044e+01	2.2106	49.192499	0.000730	7.296997	1.236145	0.000146
 113	1.1144e+01	2.2303	49.317650	0.000628	6.283525	1.064458	0.000126
 114	1.1243e+01	2.2504	49.434727	0.000588	5.878137	0.995783	0.000118
 115	1.1343e+01	2.2701	49.588138	0.000770	7.702386	1.304820	0.000154
 116	1.1443e+01	2.2911	49.729438	0.000709	7.094303	1.201807	0.000142
 117	1.1542e+01	2.3103	49.854589	0.000628	6.283525	1.064458	0.000126
 118	1.1642e+01	2.3312	50.020112	0.000831	8.310469	1.407832	0.000166
 119	1.1741e+01	2.3496	50.104892	0.000426	4.256582	0.721084	0.000085
 120	1.1841e+01	2.3702	50.230043	0.000628	6.283525	1.064458	0.000126
 121	1.1940e+01	2.3909	50.403640	0.000872	8.715858	1.476506	0.000174
 122	1.2040e+01	2.4090	50.500531	0.000486	4.864665	0.824097	0.000097
 123	1.2139e+01	2.4303	50.662016	0.000811	8.107775	1.373494	0.000162
 124	1.2239e+01	2.4496	50.762945	0.000507	5.067359	0.858434	0.000101
 125	1.2338e+01	2.4700	50.936542	0.000872	8.715858	1.476506	0.000174
 126	1.2438e+01	2.4897	51.037470	0.000507	5.067359	0.858434	0.000101
 127	1.2537e+01	2.5121	51.202993	0.000831	8.310469	1.407832	0.000166
 128	1.2636e+01	2.5288	51.352367	0.000750	7.499692	1.270482	0.000150
 129	1.2736e+01	2.5488	51.433109	0.000405	4.053887	0.686747	0.000081
 130	1.2835e+01	2.5693	51.582483	0.000750	7.499692	1.270482	0.000150
 131	1.2935e+01	2.5887	51.671300	0.000446	4.459276	0.755422	0.000089
 132	1.3034e+01	2.6086	51.828749	0.000791	7.905080	1.339157	0.000158
 133	1.3134e+01	2.6292	51.986197	0.000791	7.905080	1.339157	0.000158
 134	1.3233e+01	2.6488	52.107311	0.000608	6.080831	1.030121	0.000122
 135	1.3333e+01	2.6691	52.224388	0.000588	5.878137	0.995783	0.000118
 136	1.3432e+01	2.6883	52.397985	0.000872	8.715858	1.476506	0.000174
 137	1.3532e+01	2.7091	52.519099	0.000608	6.080831	1.030121	0.000122
 138	1.3632e+01	2.7281	52.632139	0.000568	5.675442	0.961446	0.000114
 139	1.3731e+01	2.7485	52.821884	0.000953	9.526635	1.613856	0.000191
 140	1.3831e+01	2.7682	52.930887	0.000547	5.472748	0.927109	0.000110
 141	1.3930e+01	2.7884	53.064112	0.000669	6.688914	1.133133	0.000134
 142	1.4030e+01	2.8074	53.229635	0.000831	8.310469	1.407832	0.000166
 143	1.4129e+01	2.8280	53.338637	0.000547	5.472748	0.927109	0.000110
 144	1.4229e+01	2.8489	53.451677	0.000568	5.675442	0.961446	0.000114
 145	1.4328e+01	2.8675	53.605088	0.000770	7.702386	1.304820	0.000154
 146	1.4428e+01	2.8871	53.742351	0.000689	6.891609	1.167470	0.000138
 147	1.4527e+01	2.9082	53.863465	0.000608	6.080831	1.030121	0.000122
 148	1.4627e+01	2.9276	53.980542	0.000588	5.878137	0.995783	0.000118
 149	1.4726e+01	2.9473	54.142027	0.000811	8.107775	1.373494	0.000162
 150	1.4825e+01	2.9670	54.255067	0.000568	5.675442	0.961446	0.000114
 151	1.4925e+01	2.9872	54.364070	0.000547	5.472748	0.927109	0.000110
 152	1.5024e+01	3.0077	54.549778	0.000932	9.323941	1.579518	0.000187
 153	1.5124e+01	3.0275	54.650706	0.000507	5.067359	0.858434	0.000101
 154	1.5223e+01	3.0485	54.796043	0.000730	7.296997	1.236145	0.000146
 155	1.5323e+01	3.0679	54.921195	0.000628	6.283525	1.064458	0.000126
 156	1.5422e+01	3.0871	55.042309	0.000608	6.080831	1.030121	0.000122
 157	1.5522e+01	3.1068	55.183608	0.000709	7.094303	1.201807	0.000142
 158	1.5621e+01	3.1273	55.304722	0.000608	6.080831	1.030121	0.000122
 159	1.5721e+01	3.1469	55.413725	0.000547	5.472748	0.927109	0.000110
 160	1.5820e+01	3.1667	55.575211	0.000811	8.107775	1.373494	0.000162
 161	1.5920e+01	3.1869	55.704399	0.000649	6.486220	1.098795	0.000130
 162	1.6020e+01	3.2066	55.841662	0.000689	6.891609	1.167470	0.000138
 163	1.6119e+01	3.2259	55.946627	0.000527	5.270054	0.892771	0.000105
 164	1.6218e+01	3.2476	56.091964	0.000730	7.296997	1.236145	0.000146
 165	1.6318e+01	3.2659	56.184818	0.000466	4.661970	0.789759	0.000093
 166	1.6418e+01	3.2862	56.330155	0.000730	7.296997	1.236145	0.000146
 167	1.6517e+01	3.3064	56.463380	0.000669	6.688914	1.133133	0.000134
 168	1.6616e+01	3.3262	56.600643	0.000689	6.891609	1.167470	0.000138
 169	1.6716e+01	3.3459	56.697534	0.000486	4.864665	0.824097	0.000097
 170	1.6816e+01	3.3656	56.863057	0.000831	8.310469	1.407832	0.000166
 171	1.6915e+01	3.3871	56.959948	0.000486	4.864665	0.824097	0.000097
 172	1.7015e+01	3.4057	57.113359	0.000770	7.702386	1.304820	0.000154
 173	1.7114e+01	3.4263	57.230436	0.000588	5.878137	0.995783	0.000118
 174	1.7213e+01	3.4469	57.367699	0.000689	6.891609	1.167470	0.000138
 175	1.7313e+01	3.4666	57.468627	0.000507	5.067359	0.858434	0.000101
 176	1.7413e+01	3.4850	57.605890	0.000689	6.891609	1.167470	0.000138
 177	1.7512e+01	3.5046	57.731041	0.000628	6.283525	1.064458	0.000126
 178	1.7611e+01	3.5252	57.872341	0.000709	7.094303	1.201807	0.000142
 179	1.7711e+01	3.5452	57.965195	0.000466	4.661970	0.789759	0.000093
 180	1.7811e+01	3.5650	58.130717	0.000831	8.310469	1.407832	0.000166
 181	1.7910e+01	3.5848	58.215497	0.000426	4.256582	0.721084	0.000085
 182	1.8009e+01	3.6053	58.360834	0.000730	7.296997	1.236145	0.000146
 183	1.8109e+01	3.6246	58.465800	0.000527	5.270054	0.892771	0.000105
 184	1.8209e+01	3.6457	58.586914	0.000608	6.080831	1.030121	0.000122
 185	1.8308e+01	3.6651	58.724176	0.000689	6.891609	1.167470	0.000138
 186	1.8407e+01	3.6851	58.853365	0.000649	6.486220	1.098795	0.000130
 187	1.8507e+01	3.7047	58.970442	0.000588	5.878137	0.995783	0.000118
 188	1.8607e+01	3.7244	59.140001	0.000851	8.513164	1.442169	0.000170
 189	1.8706e+01	3.7446	59.204596	0.000324	3.243110	0.549398	0.000065
 190	1.8805e+01	3.7655	59.362044	0.000791	7.905080	1.339157	0.000158
 191	1.8905e+01	3.7823	59.483158	0.000608	6.080831	1.030121	0.000122
 192	1.9005e+01	3.8034	59.612346	0.000649	6.486220	1.098795	0.000130
 193	1.9104e+01	3.8247	59.725386	0.000568	5.675442	0.961446	0.000114
 194	1.9203e+01	3.8437	59.826315	0.000507	5.067359	0.858434	0.000101
 195	1.9303e+01	3.8631	59.987800	0.000811	8.107775	1.373494	0.000162
 196	1.9402e+01	3.8842	60.100840	0.000568	5.675442	0.961446	0.000114
 197	1.9502e+01	3.9045	60.230028	0.000649	6.486220	1.098795	0.000130
 198	1.9602e+01	3.9230	60.351142	0.000608	6.080831	1.030121	0.000122
 199	1.9701e+01	3.9442	60.435922	0.000426	4.256582	0.721084	0.000085
 200	1.9800e+01	3.9640	60.601445	0.000831	8.310469	1.407832	0.000166
 201	1.9900e+01	3.9840	60.706410	0.000527	5.270054	0.892771	0.000105
 202	2.0000e+01	4.0031	60.859821	0.000770	7.702386	1.304820	0.000154
 203	2.0099e+01	4.0228	61.005158	0.000730	7.296997	1.236145	0.000146
 204	2.0198e+01	4.0438	61.049567	0.000223	2.229638	0.377711	0.000045
 205	2.0298e+01	4.0638	61.198941	0.000750	7.499692	1.270482	0.000150
 206	2.0398e+01	4.0834	61.307943	0.000547	5.472748	0.927109	0.000110
 207	2.0497e+01	4.1029	61.457317	0.000750	7.499692	1.270482	0.000150
 208	2.0596e+01	4.1232	61.550171	0.000466	4.661970	0.789759	0.000093
 209	2.0696e+01	4.1441	61.675323	0.000628	6.283525	1.064458	0.000126
 210	2.0796e+01	4.1619	61.812585	0.000689	6.891609	1.167470	0.000138
 211	2.0895e+01	4.1824	61.965996	0.000770	7.702386	1.304820	0.000154
 212	2.0994e+01	4.2028	62.062888	0.000486	4.864665	0.824097	0.000097
 213	2.1094e+01	4.2224	62.155742	0.000466	4.661970	0.789759	0.000093
 214	2.1194e+01	4.2426	62.268782	0.000568	5.675442	0.961446	0.000114
 215	2.1293e+01	4.2631	62.422193	0.000770	7.702386	1.304820	0.000154
 216	2.1392e+01	4.2829	62.511010	0.000446	4.459276	0.755422	0.000089
 217	2.1492e+01	4.3027	62.624050	0.000568	5.675442	0.961446	0.000114
 218	2.1591e+01	4.3218	62.769386	0.000730	7.296997	1.236145	0.000146
 219	2.1691e+01	4.3423	62.882426	0.000568	5.675442	0.961446	0.000114
 220	2.1791e+01	4.3613	62.999503	0.000588	5.878137	0.995783	0.000118
 221	2.1890e+01	4.3816	63.096394	0.000486	4.864665	0.824097	0.000097
 222	2.1989e+01	4.4014	63.261917	0.000831	8.310469	1.407832	0.000166
 223	2.2089e+01	4.4217	63.378994	0.000588	5.878137	0.995783	0.000118
 224	2.2189e+01	4.4421	63.459737	0.000405	4.053887	0.686747	0.000081
 225	2.2288e+01	4.4610	63.592962	0.000669	6.688914	1.133133	0.000134
 226	2.2387e+01	4.4816	63.685816	0.000466	4.661970	0.789759	0.000093
 227	2.2487e+01	4.5023	63.802893	0.000588	5.878137	0.995783	0.000118
 228	2.2587e+01	4.5218	63.932082	0.000649	6.486220	1.098795	0.000130
 229	2.2686e+01	4.5415	64.069344	0.000689	6.891609	1.167470	0.000138
 230	2.2785e+01	4.5613	64.166235	0.000486	4.864665	0.824097	0.000097
 231	2.2885e+01	4.5811	64.255052	0.000446	4.459276	0.755422	0.000089
 232	2.2985e+01	4.6001	64.440761	0.000932	9.323941	1.579518	0.000187
 233	2.3084e+01	4.6211	64.525541	0.000426	4.256582	0.721084	0.000085
 234	2.3183e+01	4.6411	64.646655	0.000608	6.080831	1.030121	0.000122
 235	2.3283e+01	4.6606	64.771806	0.000628	6.283525	1.064458	0.000126
 236	2.3383e+01	4.6804	64.896957	0.000628	6.283525	1.064458	0.000126
 237	2.3482e+01	4.7007	65.005960	0.000547	5.472748	0.927109	0.000110
 238	2.3581e+01	4.7216	65.135148	0.000649	6.486220	1.098795	0.000130
 239	2.3681e+01	4.7411	65.232039	0.000486	4.864665	0.824097	0.000097
 240	2.3780e+01	4.7611	65.369302	0.000689	6.891609	1.167470	0.000138
 241	2.3880e+01	4.7805	65.478305	0.000547	5.472748	0.927109	0.000110
 242	2.3980e+01	4.8002	65.611530	0.000669	6.688914	1.133133	0.000134
 243	2.4079e+01	4.8199	65.720533	0.000547	5.472748	0.927109	0.000110
 244	2.4178e+01	4.8405	65.829535	0.000547	5.472748	0.927109	0.000110
 245	2.4278e+01	4.8598	65.938538	0.000547	5.472748	0.927109	0.000110
 246	2.4378e+01	4.8817	66.067726	0.000649	6.486220	1.098795	0.000130
 247	2.4477e+01	4.8992	66.180766	0.000568	5.675442	0.961446	0.000114
 248	2.4576e+01	4.9200	66.330140	0.000750	7.499692	1.270482	0.000150
 249	2.4676e+01	4.9398	66.427031	0.000486	4.864665	0.824097	0.000097
 250	2.4776e+01	4.9598	66.540071	0.000568	5.675442	0.961446	0.000114
 251	2.4875e+01	4.9793	66.665222	0.000628	6.283525	1.064458	0.000126
 252	2.4974e+01	4.9990	66.770188	0.000527	5.270054	0.892771	0.000105
 253	2.5074e+01	5.0198	66.883228	0.000568	5.675442	0.961446	0.000114
 254	2.5174e+01	5.0403	67.036639	0.000770	7.702386	1.304820	0.000154
 255	2.5273e+01	5.0584	67.125456	0.000446	4.459276	0.755422	0.000089
 256	2.5372e+01	5.0791	67.262719	0.000689	6.891609	1.167470	0.000138
 257	2.5472e+01	5.1002	67.404018	0.000709	7.094303	1.201807	0.000142
 258	2.5572e+01	5.1189	67.496872	0.000466	4.661970	0.789759	0.000093
 259	2.5671e+01	5.1385	67.613949	0.000588	5.878137	0.995783	0.000118
 260	2.5770e+01	5.1573	67.706803	0.000466	4.661970	0.789759	0.000093
 261	2.5870e+01	5.1781	67.811769	0.000527	5.270054	0.892771	0.000105
 262	2.5970e+01	5.1984	67.957106	0.000730	7.296997	1.236145	0.000146
 263	2.6069e+01	5.2178	68.086294	0.000649	6.486220	1.098795	0.000130
 264	2.6169e+01	5.2392	68.183185	0.000486	4.864665	0.824097	0.000097
 265	2.6268e+01	5.2582	68.308337	0.000628	6.283525	1.064458	0.000126
 266	2.6367e+01	5.2783	68.445599	0.000689	6.891609	1.167470	0.000138
 267	2.6467e+01	5.2979	68.546528	0.000507	5.067359	0.858434	0.000101
 268	2.6567e+01	5.3185	68.695902	0.000750	7.499692	1.270482	0.000150
 269	2.6666e+01	5.3414	68.784719	0.000446	4.459276	0.755422	0.000089
 270	2.6765e+01	5.3567	68.942167	0.000791	7.905080	1.339157	0.000158
 271	2.6865e+01	5.3771	69.018873	0.000385	3.851193	0.652410	0.000077
 272	2.6965e+01	5.3985	69.160172	0.000709	7.094303	1.201807	0.000142
 273	2.7064e+01	5.4183	69.277249	0.000588	5.878137	0.995783	0.000118
 274	2.7163e+01	5.4370	69.374141	0.000486	4.864665	0.824097	0.000097
 275	2.7263e+01	5.4573	69.507366	0.000669	6.688914	1.133133	0.000134
 276	2.7363e+01	5.4780	69.632517	0.000628	6.283525	1.064458	0.000126
 277	2.7462e+01	5.4971	69.721334	0.000446	4.459276	0.755422	0.000089
 278	2.7561e+01	5.5170	69.826300	0.000527	5.270054	0.892771	0.000105
 279	2.7661e+01	5.5373	69.959525	0.000669	6.688914	1.133133	0.000134
 280	2.7761e+01	5.5573	70.060454	0.000507	5.067359	0.858434	0.000101
 281	2.7860e+01	5.5764	70.201753	0.000709	7.094303	1.201807	0.000142
 282	2.7959e+01	5.5962	70.343053	0.000709	7.094303	1.201807	0.000142
 283	2.8059e+01	5.6174	70.443981	0.000507	5.067359	0.858434	0.000101
 284	2.8159e+01	5.6368	70.528761	0.000426	4.256582	0.721084	0.000085
 285	2.8258e+01	5.6567	70.686210	0.000791	7.905080	1.339157	0.000158
 286	2.8358e+01	5.6767	70.787138	0.000507	5.067359	0.858434	0.000101
 287	2.8457e+01	5.6966	70.900178	0.000568	5.675442	0.961446	0.000114
 288	2.8556e+01	5.7171	71.001106	0.000507	5.067359	0.858434	0.000101
 289	2.8656e+01	5.7369	71.162592	0.000811	8.107775	1.373494	0.000162
 290	2.8756e+01	5.7560	71.211037	0.000243	2.432332	0.412048	0.000049
 291	2.8855e+01	5.7761	71.344263	0.000669	6.688914	1.133133	0.000134
 292	2.8954e+01	5.7960	71.481525	0.000689	6.891609	1.167470	0.000138
 293	2.9054e+01	5.8166	71.574379	0.000466	4.661970	0.789759	0.000093
 294	2.9154e+01	5.8367	71.679345	0.000527	5.270054	0.892771	0.000105
 295	2.9253e+01	5.8566	71.848905	0.000851	8.513164	1.442169	0.000170
 296	2.9352e+01	5.8758	71.917536	0.000345	3.445804	0.583735	0.000069
 297	2.9452e+01	5.8959	72.034613	0.000588	5.878137	0.995783	0.000118
 298	2.9552e+01	5.9158	72.167838	0.000669	6.688914	1.133133	0.000134
 299	2.9651e+01	5.9356	72.276841	0.000547	5.472748	0.927109	0.000110
 300	2.9750e+01	5.9563	72.418141	0.000709	7.094303	1.201807	0.000142
 301	2.9850e+01	5.9753	72.515032	0.000486	4.864665	0.824097	0.000097
 302	2.9950e+01	5.9960	72.624035	0.000547	5.472748	0.927109	0.000110
 303	3.0049e+01	6.0159	72.793594	0.000851	8.513164	1.442169	0.000170
 304	3.0148e+01	6.0363	72.874337	0.000405	4.053887	0.686747	0.000081
 305	3.0248e+01	6.0558	72.991414	0.000588	5.878137	0.995783	0.000118
 306	3.0348e+01	6.0751	73.108491	0.000588	5.878137	0.995783	0.000118
 307	3.0447e+01	6.0952	73.253828	0.000730	7.296997	1.236145	0.000146
 308	3.0547e+01	6.1150	73.362831	0.000547	5.472748	0.927109	0.000110
 309	3.0646e+01	6.1355	73.463759	0.000507	5.067359	0.858434	0.000101
 310	3.0745e+01	6.1554	73.572762	0.000547	5.472748	0.927109	0.000110
 311	3.0845e+01	6.1745	73.661579	0.000446	4.459276	0.755422	0.000089
 312	3.0945e+01	6.1944	73.810953	0.000750	7.499692	1.270482	0.000150
 313	3.1044e+01	6.2145	73.899770	0.000446	4.459276	0.755422	0.000089
 314	3.1143e+01	6.2350	74.012809	0.000568	5.675442	0.961446	0.000114
 315	3.1243e+01	6.2554	74.150072	0.000689	6.891609	1.167470	0.000138
 316	3.1343e+01	6.2740	74.251000	0.000507	5.067359	0.858434	0.000101
 317	3.1442e+01	6.2954	74.380189	0.000649	6.486220	1.098795	0.000130
 318	3.1541e+01	6.3134	74.485154	0.000527	5.270054	0.892771	0.000105
 319	3.1641e+01	6.3335	74.569934	0.000426	4.256582	0.721084	0.000085
 320	3.1741e+01	6.3534	74.699123	0.000649	6.486220	1.098795	0.000130
 321	3.1840e+01	6.3736	74.828311	0.000649	6.486220	1.098795	0.000130
 322	3.1939e+01	6.3934	74.900979	0.000365	3.648499	0.618072	0.000073
 323	3.2039e+01	6.4130	75.062465	0.000811	8.107775	1.373494	0.000162
 324	3.2139e+01	6.4340	75.123022	0.000304	3.040416	0.515060	0.000061
 325	3.2238e+01	6.4535	75.252210	0.000649	6.486220	1.098795	0.000130
 326	3.2337e+01	6.4729	75.345064	0.000466	4.661970	0.789759	0.000093
 327	3.2437e+01	6.4928	75.466178	0.000608	6.080831	1.030121	0.000122
 328	3.2536e+01	6.5120	75.550958	0.000426	4.256582	0.721084	0.000085
 329	3.2636e+01	6.5324	75.684184	0.000669	6.688914	1.133133	0.000134
 330	3.2736e+01	6.5520	75.740704	0.000284	2.837721	0.480723	0.000057
 331	3.2835e+01	6.5728	75.906226	0.000831	8.310469	1.407832	0.000166
 332	3.2934e+01	6.5926	76.011192	0.000527	5.270054	0.892771	0.000105
 333	3.3034e+01	6.6133	76.120194	0.000547	5.472748	0.927109	0.000110
 334	3.3133e+01	6.6323	76.200937	0.000405	4.053887	0.686747	0.000081
 335	3.3233e+01	6.6525	76.313977	0.000568	5.675442	0.961446	0.000114
 336	3.3333e+01	6.6730	76.414905	0.000507	5.067359	0.858434	0.000101
 337	3.3432e+01	6.6917	76.544094	0.000649	6.486220	1.098795	0.000130
 338	3.3532e+01	6.7117	76.632911	0.000446	4.459276	0.755422	0.000089
 339	3.3631e+01	6.7323	76.762099	0.000649	6.486220	1.098795	0.000130
 340	3.3730e+01	6.7525	76.867064	0.000527	5.270054	0.892771	0.000105
 341	3.3830e+01	6.7726	76.980104	0.000568	5.675442	0.961446	0.000114
 342	3.3929e+01	6.7913	77.089107	0.000547	5.472748	0.927109	0.000110
 343	3.4029e+01	6.8118	77.181961	0.000466	4.661970	0.789759	0.000093
 344	3.4129e+01	6.8301	77.266741	0.000426	4.256582	0.721084	0.000085
 345	3.4228e+01	6.8513	77.379781	0.000568	5.675442	0.961446	0.000114
 346	3.4328e+01	6.8720	77.496858	0.000588	5.878137	0.995783	0.000118
 347	3.4427e+01	6.8896	77.609897	0.000568	5.675442	0.961446	0.000114
 348	3.4526e+01	6.9118	77.714863	0.000527	5.270054	0.892771	0.000105
 349	3.4626e+01	6.9311	77.827903	0.000568	5.675442	0.961446	0.000114
 350	3.4725e+01	6.9521	77.912683	0.000426	4.256582	0.721084	0.000085
 351	3.4825e+01	6.9717	77.985351	0.000365	3.648499	0.618072	0.000073
 352	3.4925e+01	6.9909	78.130688	0.000730	7.296997	1.236145	0.000146
 353	3.5024e+01	7.0104	78.203356	0.000365	3.648499	0.618072	0.000073
 354	3.5123e+01	7.0313	78.340619	0.000689	6.891609	1.167470	0.000138
 355	3.5223e+01	7.0512	78.433473	0.000466	4.661970	0.789759	0.000093
 356	3.5322e+01	7.0698	78.530364	0.000486	4.864665	0.824097	0.000097
 357	3.5422e+01	7.0907	78.619181	0.000446	4.459276	0.755422	0.000089
 358	3.5522e+01	7.1107	78.756444	0.000689	6.891609	1.167470	0.000138
 359	3.5621e+01	7.1308	78.869484	0.000568	5.675442	0.961446	0.000114
 360	3.5721e+01	7.1500	78.946189	0.000385	3.851193	0.652410	0.000077
 361	3.5820e+01	7.1700	79.051155	0.000527	5.270054	0.892771	0.000105
 362	3.5919e+01	7.1896	79.152083	0.000507	5.067359	0.858434	0.000101
 363	3.6019e+01	7.2106	79.232826	0.000405	4.053887	0.686747	0.000081
 364	3.6118e+01	7.2295	79.362014	0.000649	6.486220	1.098795	0.000130
 365	3.6218e+01	7.2503	79.475054	0.000568	5.675442	0.961446	0.000114
 366	3.6318e+01	7.2700	79.567908	0.000466	4.661970	0.789759	0.000093
 367	3.6417e+01	7.2900	79.664800	0.000486	4.864665	0.824097	0.000097
 368	3.6517e+01	7.3096	79.785914	0.000608	6.080831	1.030121	0.000122
 369	3.6616e+01	7.3298	79.862619	0.000385	3.851193	0.652410	0.000077
 370	3.6715e+01	7.3505	79.943362	0.000405	4.053887	0.686747	0.000081
 371	3.6815e+01	7.3694	80.104847	0.000811	8.107775	1.373494	0.000162
 372	3.6914e+01	7.3895	80.165404	0.000304	3.040416	0.515060	0.000061
 373	3.7014e+01	7.4097	80.258258	0.000466	4.661970	0.789759	0.000093
 374	3.7114e+01	7.4302	80.367261	0.000547	5.472748	0.927109	0.000110
 375	3.7213e+01	7.4508	80.496449	0.000649	6.486220	1.098795	0.000130
 376	3.7313e+01	7.4691	80.577192	0.000405	4.053887	0.686747	0.000081
 377	3.7412e+01	7.4893	80.674083	0.000486	4.864665	0.824097	0.000097
 378	3.7511e+01	7.5095	80.807309	0.000669	6.688914	1.133133	0.000134
 379	3.7611e+01	7.5290	80.896126	0.000446	4.459276	0.755422	0.000089
 380	3.7711e+01	7.5485	80.960720	0.000324	3.243110	0.549398	0.000065
 381	3.7810e+01	7.5689	81.057611	0.000486	4.864665	0.824097	0.000097
 382	3.7910e+01	7.5888	81.170651	0.000568	5.675442	0.961446	0.000114
 383	3.8009e+01	7.6083	81.287728	0.000588	5.878137	0.995783	0.000118
 384	3.8108e+01	7.6289	81.352322	0.000324	3.243110	0.549398	0.000065
 385	3.8208e+01	7.6495	81.453251	0.000507	5.067359	0.858434	0.000101
 386	3.8307e+01	7.6685	81.542068	0.000446	4.459276	0.755422	0.000089
 387	3.8407e+01	7.6880	81.642996	0.000507	5.067359	0.858434	0.000101
 388	3.8507e+01	7.7081	81.723739	0.000405	4.053887	0.686747	0.000081
 389	3.8606e+01	7.7283	81.873113	0.000750	7.499692	1.270482	0.000150
 390	3.8706e+01	7.7483	81.965967	0.000466	4.661970	0.789759	0.000093
 391	3.8805e+01	7.7677	82.018450	0.000264	2.635027	0.446386	0.000053
 392	3.8904e+01	7.7881	82.107267	0.000446	4.459276	0.755422	0.000089
 393	3.9004e+01	7.8074	82.252604	0.000730	7.296997	1.236145	0.000146
 394	3.9103e+01	7.8281	82.272789	0.000101	1.013472	0.171687	0.000020
 395	3.9203e+01	7.8471	82.393903	0.000608	6.080831	1.030121	0.000122
 396	3.9303e+01	7.8677	82.482720	0.000446	4.459276	0.755422	0.000089
 397	3.9402e+01	7.8873	82.599797	0.000588	5.878137	0.995783	0.000118
 398	3.9502e+01	7.9067	82.676503	0.000385	3.851193	0.652410	0.000077
 399	3.9601e+01	7.9269	82.777431	0.000507	5.067359	0.858434	0.000101
 400	3.9700e+01	7.9473	82.878360	0.000507	5.067359	0.858434	0.000101
 401	3.9800e+01	7.9677	82.983325	0.000527	5.270054	0.892771	0.000105
 402	3.9900e+01	7.9873	83.136736	0.000770	7.702386	1.304820	0.000154
 403	3.9999e+01	8.0068	83.197293	0.000304	3.040416	0.515060	0.000061
 404	4.0099e+01	8.0270	83.286110	0.000446	4.459276	0.755422	0.000089
 405	4.0198e+01	8.0474	83.378964	0.000466	4.661970	0.789759	0.000093
 406	4.0297e+01	8.0664	83.520264	0.000709	7.094303	1.201807	0.000142
 407	4.0397e+01	8.0859	83.568710	0.000243	2.432332	0.412048	0.000049
 408	4.0496e+01	8.1074	83.669638	0.000507	5.067359	0.858434	0.000101
 409	4.0596e+01	8.1265	83.770567	0.000507	5.067359	0.858434	0.000101
 410	4.0696e+01	8.1461	83.867458	0.000486	4.864665	0.824097	0.000097
 411	4.0795e+01	8.1673	83.992609	0.000628	6.283525	1.064458	0.000126
 412	4.0895e+01	8.1866	84.077389	0.000426	4.256582	0.721084	0.000085
 413	4.0994e+01	8.2053	84.162169	0.000426	4.256582	0.721084	0.000085
 414	4.1093e+01	8.2259	84.271171	0.000547	5.472748	0.927109	0.000110
 415	4.1193e+01	8.2459	84.372100	0.000507	5.067359	0.858434	0.000101
 416	4.1292e+01	8.2658	84.497251	0.000628	6.283525	1.064458	0.000126
 417	4.1392e+01	8.2863	84.561845	0.000324	3.243110	0.549398	0.000065
 418	4.1492e+01	8.3062	84.666811	0.000527	5.270054	0.892771	0.000105
 419	4.1591e+01	8.3252	84.751591	0.000426	4.256582	0.721084	0.000085
 420	4.1691e+01	8.3451	84.860593	0.000547	5.472748	0.927109	0.000110
 421	4.1790e+01	8.3645	84.965559	0.000527	5.270054	0.892771	0.000105
 422	4.1889e+01	8.3853	85.070524	0.000527	5.270054	0.892771	0.000105
 423	4.1989e+01	8.4055	85.163378	0.000466	4.661970	0.789759	0.000093
 424	4.2089e+01	8.4250	85.260270	0.000486	4.864665	0.824097	0.000097
 425	4.2188e+01	8.4455	85.385421	0.000628	6.283525	1.064458	0.000126
 426	4.2288e+01	8.4642	85.441941	0.000284	2.837721	0.480723	0.000057
 427	4.2387e+01	8.4835	85.538832	0.000486	4.864665	0.824097	0.000097
 428	4.2486e+01	8.5051	85.643798	0.000527	5.270054	0.892771	0.000105
 429	4.2586e+01	8.5255	85.764912	0.000608	6.080831	1.030121	0.000122
 430	4.2685e+01	8.5437	85.841617	0.000385	3.851193	0.652410	0.000077
 431	4.2785e+01	8.5645	85.930434	0.000446	4.459276	0.755422	0.000089
 432	4.2885e+01	8.5849	86.027325	0.000486	4.864665	0.824097	0.000097
 433	4.2984e+01	8.6050	86.136328	0.000547	5.472748	0.927109	0.000110
 434	4.3084e+01	8.6249	86.249368	0.000568	5.675442	0.961446	0.000114
 435	4.3183e+01	8.6440	86.358371	0.000547	5.472748	0.927109	0.000110
 436	4.3282e+01	8.6649	86.455262	0.000486	4.864665	0.824097	0.000097
 437	4.3382e+01	8.6841	86.544079	0.000446	4.459276	0.755422	0.000089
 438	4.3481e+01	8.7040	86.657119	0.000568	5.675442	0.961446	0.000114
 439	4.3581e+01	8.7237	86.705564	0.000243	2.432332	0.412048	0.000049
 440	4.3681e+01	8.7434	86.818604	0.000568	5.675442	0.961446	0.000114
 441	4.3780e+01	8.7638	86.923570	0.000527	5.270054	0.892771	0.000105
 442	4.3880e+01	8.7839	87.048721	0.000628	6.283525	1.064458	0.000126
 443	4.3979e+01	8.8042	87.113315	0.000324	3.243110	0.549398	0.000065
 444	4.4078e+01	8.8232	87.234429	0.000608	6.080831	1.030121	0.000122
 445	4.4178e+01	8.8425	87.315172	0.000405	4.053887	0.686747	0.000081
 446	4.4278e+01	8.8631	87.424174	0.000547	5.472748	0.927109	0.000110
 447	4.4377e+01	8.8825	87.492806	0.000345	3.445804	0.583735	0.000069
 448	4.4477e+01	8.9031	87.613920	0.000608	6.080831	1.030121	0.000122
 449	4.4576e+01	8.9237	87.735034	0.000608	6.080831	1.030121	0.000122
 450	4.4675e+01	8.9429	87.783479	0.000243	2.432332	0.412048	0.000049
 451	4.4775e+01	8.9618	87.876334	0.000466	4.661970	0.789759	0.000093
 452	4.4874e+01	8.9832	87.981299	0.000527	5.270054	0.892771	0.000105
 453	4.4974e+01	9.0023	88.090302	0.000547	5.472748	0.927109	0.000110
 454	4.5074e+01	9.0221	88.207379	0.000588	5.878137	0.995783	0.000118
 455	4.5173e+01	9.0414	88.292159	0.000426	4.256582	0.721084	0.000085
 456	4.5273e+01	9.0625	88.360790	0.000345	3.445804	0.583735	0.000069
 457	4.5372e+01	9.0820	88.502090	0.000709	7.094303	1.201807	0.000142
 458	4.5471e+01	9.1029	88.594944	0.000466	4.661970	0.789759	0.000093
 459	4.5571e+01	9.1220	88.667612	0.000365	3.648499	0.618072	0.000073
 460	4.5670e+01	9.1418	88.772578	0.000527	5.270054	0.892771	0.000105
 461	4.5770e+01	9.1617	88.897729	0.000628	6.283525	1.064458	0.000126
 462	4.5870e+01	9.1810	88.966360	0.000345	3.445804	0.583735	0.000069
 463	4.5969e+01	9.2017	89.047103	0.000405	4.053887	0.686747	0.000081
 464	4.6069e+01	9.2219	89.164180	0.000588	5.878137	0.995783	0.000118
 465	4.6168e+01	9.2416	89.257034	0.000466	4.661970	0.789759	0.000093
 466	4.6267e+01	9.2615	89.366037	0.000547	5.472748	0.927109	0.000110
 467	4.6367e+01	9.2812	89.479076	0.000568	5.675442	0.961446	0.000114
 468	4.6467e+01	9.3008	89.567893	0.000446	4.459276	0.755422	0.000089
 469	4.6566e+01	9.3213	89.660748	0.000466	4.661970	0.789759	0.000093
 470	4.6666e+01	9.3408	89.765713	0.000527	5.270054	0.892771	0.000105
 471	4.6765e+01	9.3604	89.830307	0.000324	3.243110	0.549398	0.000065
 472	4.6864e+01	9.3808	89.955459	0.000628	6.283525	1.064458	0.000126
 473	4.6964e+01	9.4008	90.020053	0.000324	3.243110	0.549398	0.000065
 474	4.7063e+01	9.4209	90.120981	0.000507	5.067359	0.858434	0.000101
 475	4.7163e+01	9.4403	90.254207	0.000669	6.688914	1.133133	0.000134
 476	4.7263e+01	9.4595	90.375321	0.000608	6.080831	1.030121	0.000122
 477	4.7362e+01	9.4796	90.456063	0.000405	4.053887	0.686747	0.000081
 478	4.7462e+01	9.4999	90.573140	0.000588	5.878137	0.995783	0.000118
 479	4.7561e+01	9.5197	90.657920	0.000426	4.256582	0.721084	0.000085
 480	4.7660e+01	9.5405	90.706366	0.000243	2.432332	0.412048	0.000049
 481	4.7760e+01	9.5605	90.839591	0.000669	6.688914	1.133133	0.000134
 482	4.7859e+01	9.5808	90.924371	0.000426	4.256582	0.721084	0.000085
 483	4.7959e+01	9.5996	91.013188	0.000446	4.459276	0.755422	0.000089
 484	4.8059e+01	9.6198	91.126228	0.000568	5.675442	0.961446	0.000114
 485	4.8158e+01	9.6395	91.227156	0.000507	5.067359	0.858434	0.000101
 486	4.8258e+01	9.6594	91.336159	0.000547	5.472748	0.927109	0.000110
 487	4.8357e+01	9.6796	91.392679	0.000284	2.837721	0.480723	0.000057
 488	4.8456e+01	9.6997	91.501682	0.000547	5.472748	0.927109	0.000110
 489	4.8556e+01	9.7181	91.598573	0.000486	4.864665	0.824097	0.000097
 490	4.8656e+01	9.7396	91.687390	0.000446	4.459276	0.755422	0.000089
 491	4.8755e+01	9.7607	91.768132	0.000405	4.053887	0.686747	0.000081
 492	4.8855e+01	9.7787	91.852912	0.000426	4.256582	0.721084	0.000085
 493	4.8954e+01	9.7974	91.974026	0.000608	6.080831	1.030121	0.000122
 494	4.9053e+01	9.8176	92.066881	0.000466	4.661970	0.789759	0.000093
 495	4.9153e+01	9.8385	92.175883	0.000547	5.472748	0.927109	0.000110
 496	4.9252e+01	9.8572	92.256626	0.000405	4.053887	0.686747	0.000081
 497	4.9352e+01	9.8786	92.292960	0.000182	1.824249	0.309036	0.000037
 498	4.9452e+01	9.8993	92.401963	0.000547	5.472748	0.927109	0.000110
 499	4.9551e+01	9.9188	92.510965	0.000547	5.472748	0.927109	0.000110
 500	4.9651e+01	9.9374	92.599782	0.000446	4.459276	0.755422	0.000089
 501	4.9750e+01	9.9585	92.684562	0.000426	4.256582	0.721084	0.000085
 502	4.9849e+01	9.9780	92.765305	0.000405	4.053887	0.686747	0.000081
 503	4.9949e+01	9.9976	92.878345	0.000568	5.675442	0.961446	0.000114
 504	5.0048e+01	9.9770	92.817788	0.000304	3.040416	0.515060	-0.000061
 505	5.0148e+01	9.9585	92.728971	0.000446	4.459276	0.755422	-0.000089
 506	5.0248e+01	9.9384	92.656302	0.000365	3.648499	0.618072	-0.000073
 507	5.0347e+01	9.9176	92.632080	0.000122	1.216166	0.206024	-0.000024
 508	5.0447e+01	9.8986	92.559411	0.000365	3.648499	0.618072	-0.000073
 509	5.0546e+01	9.8792	92.486743	0.000365	3.648499	0.618072	-0.000073
 510	5.0645e+01	9.8585	92.389851	0.000486	4.864665	0.824097	-0.000097
 511	5.0745e+01	9.8392	92.349480	0.000203	2.026944	0.343374	-0.000041
 512	5.0844e+01	9.8193	92.292960	0.000284	2.837721	0.480723	-0.000057
 513	5.0944e+01	9.8001	92.187995	0.000527	5.270054	0.892771	-0.000105
 514	5.1044e+01	9.7788	92.095140	0.000466	4.661970	0.789759	-0.000093
 515	5.1143e+01	9.7583	92.058806	0.000182	1.824249	0.309036	-0.000037
 516	5.1242e+01	9.7388	91.945766	0.000568	5.675442	0.961446	-0.000114
 517	5.1342e+01	9.7188	91.901358	0.000223	2.229638	0.377711	-0.000045
 518	5.1441e+01	9.6994	91.832727	0.000345	3.445804	0.583735	-0.000069
 519	5.1541e+01	9.6796	91.776207	0.000284	2.837721	0.480723	-0.000057
 520	5.1641e+01	9.6595	91.691427	0.000426	4.256582	0.721084	-0.000085
 521	5.1740e+01	9.6389	91.622796	0.000345	3.445804	0.583735	-0.000069
 522	5.1840e+01	9.6198	91.558201	0.000324	3.243110	0.549398	-0.000065
 523	5.1939e+01	9.5998	91.449199	0.000547	5.472748	0.927109	-0.000110
 524	5.2038e+01	9.5795	91.408827	0.000203	2.026944	0.343374	-0.000041
 525	5.2138e+01	9.5596	91.291750	0.000588	5.878137	0.995783	-0.000118
 526	5.2237e+01	9.5393	91.247342	0.000223	2.229638	0.377711	-0.000045
 527	5.2337e+01	9.5199	91.130265	0.000588	5.878137	0.995783	-0.000118
 528	5.2437e+01	9.4998	91.085857	0.000223	2.229638	0.377711	-0.000045
 529	5.2536e+01	9.4804	90.980891	0.000527	5.270054	0.892771	-0.000105
 530	5.2636e+01	9.4601	90.908223	0.000365	3.648499	0.618072	-0.000073
 531	5.2735e+01	9.4398	90.807294	0.000507	5.067359	0.858434	-0.000101
 532	5.2834e+01	9.4202	90.754811	0.000264	2.635027	0.446386	-0.000053
 533	5.2934e+01	9.4001	90.682143	0.000365	3.648499	0.618072	-0.000073
 534	5.3033e+01	9.3799	90.593326	0.000446	4.459276	0.755422	-0.000089
 535	5.3133e+01	9.3613	90.544880	0.000243	2.432332	0.412048	-0.000049
 536	5.3233e+01	9.3411	90.468175	0.000385	3.851193	0.652410	-0.000077
 537	5.3332e+01	9.3216	90.379358	0.000446	4.459276	0.755422	-0.000089
 538	5.3431e+01	9.3008	90.290541	0.000446	4.459276	0.755422	-0.000089
 539	5.3531e+01	9.2811	90.258244	0.000162	1.621555	0.274699	-0.000032
 540	5.3630e+01	9.2609	90.161352	0.000486	4.864665	0.824097	-0.000097
 541	5.3730e+01	9.2401	90.064461	0.000486	4.864665	0.824097	-0.000097
 542	5.3830e+01	9.2211	89.947384	0.000588	5.878137	0.995783	-0.000118
 543	5.3929e+01	9.2017	89.878753	0.000345	3.445804	0.583735	-0.000069
 544	5.4029e+01	9.1814	89.810122	0.000345	3.445804	0.583735	-0.000069
 545	5.4128e+01	9.1626	89.697082	0.000568	5.675442	0.961446	-0.000114
 546	5.4227e+01	9.1418	89.624413	0.000365	3.648499	0.618072	-0.000073
 547	5.4327e+01	9.1218	89.563856	0.000304	3.040416	0.515060	-0.000061
 548	5.4426e+01	9.1019	89.495225	0.000345	3.445804	0.583735	-0.000069
 549	5.4526e+01	9.0813	89.402371	0.000466	4.661970	0.789759	-0.000093
 550	5.4626e+01	9.0614	89.293368	0.000547	5.472748	0.927109	-0.000110
 551	5.4725e+01	9.0417	89.212626	0.000405	4.053887	0.686747	-0.000081
 552	5.4825e+01	9.0221	89.115734	0.000486	4.864665	0.824097	-0.000097
 553	5.4924e+01	9.0020	89.055177	0.000304	3.040416	0.515060	-0.000061
 554	5.5023e+01	8.9823	88.962323	0.000466	4.661970	0.789759	-0.000093
 555	5.5123e+01	8.9631	88.909840	0.000264	2.635027	0.446386	-0.000053
 556	5.5222e+01	8.9424	88.780652	0.000649	6.486220	1.098795	-0.000130
 557	5.5322e+01	8.9227	88.699909	0.000405	4.053887	0.686747	-0.000081
 558	5.5422e+01	8.9027	88.607055	0.000466	4.661970	0.789759	-0.000093
 559	5.5521e+01	8.8827	88.502090	0.000527	5.270054	0.892771	-0.000105
 560	5.5620e+01	8.8625	88.441533	0.000304	3.040416	0.515060	-0.000061
 561	5.5720e+01	8.8428	88.328493	0.000568	5.675442	0.961446	-0.000114
 562	5.5819e+01	8.8227	88.300233	0.000142	1.418861	0.240361	-0.000028
 563	5.5919e+01	8.8039	88.146822	0.000770	7.702386	1.304820	-0.000154
 564	5.6019e+01	8.7831	88.102413	0.000223	2.229638	0.377711	-0.000045
 565	5.6118e+01	8.7650	87.993411	0.000547	5.472748	0.927109	-0.000110
 566	5.6218e+01	8.7432	87.908631	0.000426	4.256582	0.721084	-0.000085
 567	5.6317e+01	8.7244	87.831925	0.000385	3.851193	0.652410	-0.000077
 568	5.6416e+01	8.7045	87.751182	0.000405	4.053887	0.686747	-0.000081
 569	5.6516e+01	8.6848	87.650254	0.000507	5.067359	0.858434	-0.000101
 570	5.6615e+01	8.6646	87.573548	0.000385	3.851193	0.652410	-0.000077
 571	5.6715e+01	8.6436	87.492806	0.000405	4.053887	0.686747	-0.000081
 572	5.6815e+01	8.6240	87.428212	0.000324	3.243110	0.549398	-0.000065
 573	5.6914e+01	8.6047	87.331320	0.000486	4.864665	0.824097	-0.000097
 574	5.7014e+01	8.5842	87.218280	0.000568	5.675442	0.961446	-0.000114
 575	5.7113e+01	8.5650	87.161761	0.000284	2.837721	0.480723	-0.000057
 576	5.7212e+01	8.5444	87.085055	0.000385	3.851193	0.652410	-0.000077
 577	5.7312e+01	8.5259	86.980089	0.000527	5.270054	0.892771	-0.000105
 578	5.7411e+01	8.5047	86.895310	0.000426	4.256582	0.721084	-0.000085
 579	5.7511e+01	8.4851	86.818604	0.000385	3.851193	0.652410	-0.000077
 580	5.7611e+01	8.4647	86.729787	0.000446	4.459276	0.755422	-0.000089
 581	5.7710e+01	8.4441	86.640970	0.000446	4.459276	0.755422	-0.000089
 582	5.7809e+01	8.4258	86.568302	0.000365	3.648499	0.618072	-0.000073
 583	5.7909e+01	8.4057	86.463336	0.000527	5.270054	0.892771	-0.000105
 584	5.8008e+01	8.3855	86.382593	0.000405	4.053887	0.686747	-0.000081
 585	5.8108e+01	8.3659	86.330111	0.000264	2.635027	0.446386	-0.000053
 586	5.8208e+01	8.3447	86.213034	0.000588	5.878137	0.995783	-0.000118
 587	5.8307e+01	8.3252	86.112105	0.000507	5.067359	0.858434	-0.000101
 588	5.8407e+01	8.3063	86.051548	0.000304	3.040416	0.515060	-0.000061
 589	5.8506e+01	8.2852	85.950620	0.000507	5.067359	0.858434	-0.000101
 590	5.8605e+01	8.2650	85.922360	0.000142	1.418861	0.240361	-0.000028
 591	5.8705e+01	8.2464	85.809320	0.000568	5.675442	0.961446	-0.000114
 592	5.8804e+01	8.2264	85.712429	0.000486	4.864665	0.824097	-0.000097
 593	5.8904e+01	8.2064	85.619575	0.000466	4.661970	0.789759	-0.000093
 594	5.9004e+01	8.1866	85.575166	0.000223	2.229638	0.377711	-0.000045
 595	5.9103e+01	8.1677	85.482312	0.000466	4.661970	0.789759	-0.000093
 596	5.9203e+01	8.1467	85.336975	0.000730	7.296997	1.236145	-0.000146
 597	5.9302e+01	8.1257	85.284492	0.000264	2.635027	0.446386	-0.000053
 598	5.9401e+01	8.1060	85.211824	0.000365	3.648499	0.618072	-0.000073
 599	5.9501e+01	8.0863	85.131081	0.000405	4.053887	0.686747	-0.000081
 600	5.9600e+01	8.0657	85.046301	0.000426	4.256582	0.721084	-0.000085
 601	5.9700e+01	8.0469	84.941336	0.000527	5.270054	0.892771	-0.000105
 602	5.9800e+01	8.0264	84.860593	0.000405	4.053887	0.686747	-0.000081
 603	5.9899e+01	8.0070	84.775813	0.000426	4.256582	0.721084	-0.000085
 604	5.9998e+01	7.9871	84.686996	0.000446	4.459276	0.755422	-0.000089
 605	6.0098e+01	7.9667	84.606254	0.000405	4.053887	0.686747	-0.000081
 606	6.0197e+01	7.9480	84.529548	0.000385	3.851193	0.652410	-0.000077
 607	6.0297e+01	7.9273	84.448805	0.000405	4.053887	0.686747	-0.000081
 608	6.0397e+01	7.9060	84.319617	0.000649	6.486220	1.098795	-0.000130
 609	6.0496e+01	7.8864	84.242911	0.000385	3.851193	0.652410	-0.000077
 610	6.0596e+01	7.8674	84.166206	0.000385	3.851193	0.652410	-0.000077
 611	6.0695e+01	7.8472	84.089500	0.000385	3.851193	0.652410	-0.000077
 612	6.0794e+01	7.8272	84.016832	0.000365	3.648499	0.618072	-0.000073
 613	6.0894e+01	7.8079	83.911866	0.000527	5.270054	0.892771	-0.000105
 614	6.0993e+01	7.7882	83.843235	0.000345	3.445804	0.583735	-0.000069
 615	6.1093e+01	7.7673	83.730195	0.000568	5.675442	0.961446	-0.000114
 616	6.1193e+01	7.7474	83.653490	0.000385	3.851193	0.652410	-0.000077
 617	6.1292e+01	7.7279	83.560636	0.000466	4.661970	0.789759	-0.000093
 618	6.1392e+01	7.7087	83.447596	0.000568	5.675442	0.961446	-0.000114
 619	6.1491e+01	7.6880	83.387039	0.000304	3.040416	0.515060	-0.000061
 620	6.1590e+01	7.6675	83.318407	0.000345	3.445804	0.583735	-0.000069
 621	6.1690e+01	7.6482	83.209405	0.000547	5.472748	0.927109	-0.000110
 622	6.1789e+01	7.6290	83.132699	0.000385	3.851193	0.652410	-0.000077
 623	6.1889e+01	7.6075	83.051956	0.000405	4.053887	0.686747	-0.000081
 624	6.1989e+01	7.5882	82.959102	0.000466	4.661970	0.789759	-0.000093
 625	6.2088e+01	7.5687	82.846062	0.000568	5.675442	0.961446	-0.000114
 626	6.2188e+01	7.5492	82.777431	0.000345	3.445804	0.583735	-0.000069
 627	6.2287e+01	7.5291	82.700726	0.000385	3.851193	0.652410	-0.000077
 628	6.2386e+01	7.5091	82.611909	0.000446	4.459276	0.755422	-0.000089
 629	6.2486e+01	7.4895	82.470609	0.000709	7.094303	1.201807	-0.000142
 630	6.2586e+01	7.4689	82.422163	0.000243	2.432332	0.412048	-0.000049
 631	6.2685e+01	7.4489	82.349495	0.000365	3.648499	0.618072	-0.000073
 632	6.2785e+01	7.4292	82.236455	0.000568	5.675442	0.961446	-0.000114
 633	6.2884e+01	7.4095	82.192046	0.000223	2.229638	0.377711	-0.000045
 634	6.2983e+01	7.3899	82.095155	0.000486	4.864665	0.824097	-0.000097
 635	6.3083e+01	7.3690	81.998264	0.000486	4.864665	0.824097	-0.000097
 636	6.3182e+01	7.3492	81.885224	0.000568	5.675442	0.961446	-0.000114
 637	6.3282e+01	7.3296	81.824667	0.000304	3.040416	0.515060	-0.000061
 638	6.3382e+01	7.3100	81.739887	0.000426	4.256582	0.721084	-0.000085
 639	6.3481e+01	7.2916	81.634922	0.000527	5.270054	0.892771	-0.000105
 640	6.3581e+01	7.2691	81.562253	0.000365	3.648499	0.618072	-0.000073
 641	6.3680e+01	7.2510	81.473436	0.000446	4.459276	0.755422	-0.000089
 642	6.3779e+01	7.2295	81.392694	0.000405	4.053887	0.686747	-0.000081
 643	6.3879e+01	7.2092	81.303877	0.000446	4.459276	0.755422	-0.000089
 644	6.3978e+01	7.1900	81.215060	0.000446	4.459276	0.755422	-0.000089
 645	6.4078e+01	7.1704	81.114131	0.000507	5.067359	0.858434	-0.000101
 646	6.4177e+01	7.1502	81.041463	0.000365	3.648499	0.618072	-0.000073
 647	6.4277e+01	7.1302	80.944572	0.000486	4.864665	0.824097	-0.000097
 648	6.4376e+01	7.1105	80.835569	0.000547	5.472748	0.927109	-0.000110
 649	6.4476e+01	7.0912	80.746752	0.000446	4.459276	0.755422	-0.000089
 650	6.4576e+01	7.0712	80.686195	0.000304	3.040416	0.515060	-0.000061
 651	6.4675e+01	7.0511	80.581229	0.000527	5.270054	0.892771	-0.000105
 652	6.4775e+01	7.0313	80.484338	0.000486	4.864665	0.824097	-0.000097
 653	6.4874e+01	7.0110	80.407632	0.000385	3.851193	0.652410	-0.000077
 654	6.4974e+01	6.9915	80.322853	0.000426	4.256582	0.721084	-0.000085
 655	6.5073e+01	6.9717	80.221924	0.000507	5.067359	0.858434	-0.000101
 656	6.5172e+01	6.9508	80.145219	0.000385	3.851193	0.652410	-0.000077
 657	6.5272e+01	6.9315	80.068513	0.000385	3.851193	0.652410	-0.000077
 658	6.5371e+01	6.9118	79.935288	0.000669	6.688914	1.133133	-0.000134
 659	6.5471e+01	6.8916	79.854545	0.000405	4.053887	0.686747	-0.000081
 660	6.5570e+01	6.8714	79.741505	0.000568	5.675442	0.961446	-0.000114
 661	6.5670e+01	6.8517	79.660762	0.000405	4.053887	0.686747	-0.000081
 662	6.5769e+01	6.8311	79.571945	0.000446	4.459276	0.755422	-0.000089
 663	6.5869e+01	6.8115	79.503314	0.000345	3.445804	0.583735	-0.000069
 664	6.5969e+01	6.7918	79.349903	0.000770	7.702386	1.304820	-0.000154
 665	6.6068e+01	6.7712	79.297420	0.000264	2.635027	0.446386	-0.000053
 666	6.6168e+01	6.7527	79.184380	0.000568	5.675442	0.961446	-0.000114
 667	6.6267e+01	6.7321	79.095563	0.000446	4.459276	0.755422	-0.000089
 668	6.6367e+01	6.7126	78.998672	0.000486	4.864665	0.824097	-0.000097
 669	6.6466e+01	6.6921	78.905818	0.000466	4.661970	0.789759	-0.000093
 670	6.6566e+01	6.6721	78.812964	0.000466	4.661970	0.789759	-0.000093
 671	6.6665e+01	6.6522	78.752407	0.000304	3.040416	0.515060	-0.000061
 672	6.6764e+01	6.6328	78.607070	0.000730	7.296997	1.236145	-0.000146
 673	6.6864e+01	6.6127	78.534402	0.000365	3.648499	0.618072	-0.000073
 674	6.6963e+01	6.5926	78.421362	0.000568	5.675442	0.961446	-0.000114
 675	6.7063e+01	6.5720	78.324470	0.000486	4.864665	0.824097	-0.000097
 676	6.7162e+01	6.5533	78.243728	0.000405	4.053887	0.686747	-0.000081
 677	6.7262e+01	6.5332	78.114539	0.000649	6.486220	1.098795	-0.000130
 678	6.7362e+01	6.5121	78.037834	0.000385	3.851193	0.652410	-0.000077
 679	6.7461e+01	6.4932	77.957091	0.000405	4.053887	0.686747	-0.000081
 680	6.7561e+01	6.4736	77.844051	0.000568	5.675442	0.961446	-0.000114
 681	6.7660e+01	6.4538	77.763309	0.000405	4.053887	0.686747	-0.000081
 682	6.7760e+01	6.4324	77.690640	0.000365	3.648499	0.618072	-0.000073
 683	6.7859e+01	6.4137	77.569526	0.000608	6.080831	1.030121	-0.000122
 684	6.7959e+01	6.3937	77.440338	0.000649	6.486220	1.098795	-0.000130
 685	6.8058e+01	6.3735	77.355558	0.000426	4.256582	0.721084	-0.000085
 686	6.8157e+01	6.3531	77.282889	0.000365	3.648499	0.618072	-0.000073
 687	6.8257e+01	6.3334	77.165812	0.000588	5.878137	0.995783	-0.000118
 688	6.8356e+01	6.3140	77.068921	0.000486	4.864665	0.824097	-0.000097
 689	6.8456e+01	6.2952	76.943770	0.000628	6.283525	1.064458	-0.000126
 690	6.8555e+01	6.2739	76.838805	0.000527	5.270054	0.892771	-0.000105
 691	6.8655e+01	6.2550	76.741913	0.000486	4.864665	0.824097	-0.000097
 692	6.8754e+01	6.2347	76.649059	0.000466	4.661970	0.789759	-0.000093
 693	6.8854e+01	6.2151	76.544094	0.000527	5.270054	0.892771	-0.000105
 694	6.8954e+01	6.1947	76.455277	0.000446	4.459276	0.755422	-0.000089
 695	6.9053e+01	6.1749	76.374534	0.000405	4.053887	0.686747	-0.000081
 696	6.9153e+01	6.1541	76.261494	0.000568	5.675442	0.961446	-0.000114
 697	6.9252e+01	6.1351	76.148454	0.000568	5.675442	0.961446	-0.000114
 698	6.9352e+01	6.1147	76.051563	0.000486	4.864665	0.824097	-0.000097
 699	6.9451e+01	6.0949	75.958709	0.000466	4.661970	0.789759	-0.000093
 700	6.9550e+01	6.0764	75.825483	0.000669	6.688914	1.133133	-0.000134
 701	6.9650e+01	6.0557	75.785112	0.000203	2.026944	0.343374	-0.000041
 702	6.9749e+01	6.0338	75.639775	0.000730	7.296997	1.236145	-0.000146
 703	6.9849e+01	6.0149	75.575181	0.000324	3.243110	0.549398	-0.000065
 704	6.9948e+01	5.9957	75.433881	0.000709	7.094303	1.201807	-0.000142
 705	7.0048e+01	5.9753	75.357176	0.000385	3.851193	0.652410	-0.000077
 706	7.0147e+01	5.9554	75.248173	0.000547	5.472748	0.927109	-0.000110
 707	7.0247e+01	5.9361	75.131096	0.000588	5.878137	0.995783	-0.000118
 708	7.0347e+01	5.9158	75.046316	0.000426	4.256582	0.721084	-0.000085
 709	7.0446e+01	5.8952	74.925202	0.000608	6.080831	1.030121	-0.000122
 710	7.0546e+01	5.8764	74.860608	0.000324	3.243110	0.549398	-0.000065
 711	7.0645e+01	5.8564	74.755642	0.000527	5.270054	0.892771	-0.000105
 712	7.0745e+01	5.8358	74.606268	0.000750	7.499692	1.270482	-0.000150
 713	7.0844e+01	5.8170	74.533600	0.000365	3.648499	0.618072	-0.000073
 714	7.0944e+01	5.7964	74.440746	0.000466	4.661970	0.789759	-0.000093
 715	7.1043e+01	5.7765	74.303483	0.000689	6.891609	1.167470	-0.000138
 716	7.1142e+01	5.7563	74.238889	0.000324	3.243110	0.549398	-0.000065
 717	7.1242e+01	5.7366	74.097589	0.000709	7.094303	1.201807	-0.000142
 718	7.1341e+01	5.7166	74.000698	0.000486	4.864665	0.824097	-0.000097
 719	7.1441e+01	5.6969	73.883621	0.000588	5.878137	0.995783	-0.000118
 720	7.1540e+01	5.6765	73.774618	0.000547	5.472748	0.927109	-0.000110
 721	7.1640e+01	5.6566	73.665616	0.000547	5.472748	0.927109	-0.000110
 722	7.1740e+01	5.6370	73.576799	0.000446	4.459276	0.755422	-0.000089
 723	7.1839e+01	5.6179	73.475870	0.000507	5.067359	0.858434	-0.000101
 724	7.1939e+01	5.5964	73.354756	0.000608	6.080831	1.030121	-0.000122
 725	7.2038e+01	5.5773	73.233642	0.000608	6.080831	1.030121	-0.000122
 726	7.2138e+01	5.5569	73.096380	0.000689	6.891609	1.167470	-0.000138
 727	7.2237e+01	5.5367	73.027748	0.000345	3.445804	0.583735	-0.000069
 728	7.2337e+01	5.5169	72.898560	0.000649	6.486220	1.098795	-0.000130
 729	7.2436e+01	5.4980	72.813780	0.000426	4.256582	0.721084	-0.000085
 730	7.2535e+01	5.4771	72.696703	0.000588	5.878137	0.995783	-0.000118
 731	7.2635e+01	5.4574	72.583663	0.000568	5.675442	0.961446	-0.000114
 732	7.2734e+01	5.4379	72.531181	0.000264	2.635027	0.446386	-0.000053
 733	7.2834e+01	5.4185	72.385844	0.000730	7.296997	1.236145	-0.000146
 734	7.2933e+01	5.3971	72.264730	0.000608	6.080831	1.030121	-0.000122
 735	7.3033e+01	5.3777	72.115356	0.000750	7.499692	1.270482	-0.000150
 736	7.3132e+01	5.3577	72.054799	0.000304	3.040416	0.515060	-0.000061
 737	7.3232e+01	5.3384	71.953870	0.000507	5.067359	0.858434	-0.000101
 738	7.3332e+01	5.3177	71.848905	0.000527	5.270054	0.892771	-0.000105
 739	7.3431e+01	5.2977	71.739902	0.000547	5.472748	0.927109	-0.000110
 740	7.3531e+01	5.2776	71.626862	0.000568	5.675442	0.961446	-0.000114
 741	7.3630e+01	5.2590	71.554194	0.000365	3.648499	0.618072	-0.000073
 742	7.3730e+01	5.2386	71.396746	0.000791	7.905080	1.339157	-0.000158
 743	7.3829e+01	5.2189	71.283706	0.000568	5.675442	0.961446	-0.000114
 744	7.3928e+01	5.1992	71.223149	0.000304	3.040416	0.515060	-0.000061
 745	7.4028e+01	5.1797	71.110109	0.000568	5.675442	0.961446	-0.000114
 746	7.4127e+01	5.1576	71.013218	0.000486	4.864665	0.824097	-0.000097
 747	7.4227e+01	5.1382	70.932475	0.000405	4.053887	0.686747	-0.000081
 748	7.4326e+01	5.1192	70.799249	0.000669	6.688914	1.133133	-0.000134
 749	7.4426e+01	5.0991	70.674098	0.000628	6.283525	1.064458	-0.000126
 750	7.4525e+01	5.0787	70.585281	0.000446	4.459276	0.755422	-0.000089
 751	7.4625e+01	5.0588	70.427833	0.000791	7.905080	1.339157	-0.000158
 752	7.4725e+01	5.0390	70.318830	0.000547	5.472748	0.927109	-0.000110
 753	7.4824e+01	5.0196	70.262310	0.000284	2.837721	0.480723	-0.000057
 754	7.4924e+01	5.0000	70.169456	0.000466	4.661970	0.789759	-0.000093
 755	7.5023e+01	4.9792	70.012008	0.000791	7.905080	1.339157	-0.000158
 756	7.5123e+01	4.9607	69.939340	0.000365	3.648499	0.618072	-0.000073
 757	7.5222e+01	4.9401	69.838411	0.000507	5.067359	0.858434	-0.000101
 758	7.5322e+01	4.9201	69.713260	0.000628	6.283525	1.064458	-0.000126
 759	7.5421e+01	4.8996	69.624443	0.000446	4.459276	0.755422	-0.000089
 760	7.5520e+01	4.8795	69.487180	0.000689	6.891609	1.167470	-0.000138
 761	7.5620e+01	4.8602	69.382215	0.000527	5.270054	0.892771	-0.000105
 762	7.5719e+01	4.8400	69.301472	0.000405	4.053887	0.686747	-0.000081
 763	7.5819e+01	4.8206	69.172284	0.000649	6.486220	1.098795	-0.000130
 764	7.5918e+01	4.8006	69.079430	0.000466	4.661970	0.789759	-0.000093
 765	7.6018e+01	4.7799	68.950241	0.000649	6.486220	1.098795	-0.000130
 766	7.6118e+01	4.7601	68.861424	0.000446	4.459276	0.755422	-0.000089
 767	7.6217e+01	4.7408	68.756459	0.000527	5.270054	0.892771	-0.000105
 768	7.6317e+01	4.7211	68.651493	0.000527	5.270054	0.892771	-0.000105
 769	7.6416e+01	4.7010	68.542491	0.000547	5.472748	0.927109	-0.000110
 770	7.6516e+01	4.6812	68.453674	0.000446	4.459276	0.755422	-0.000089
 771	7.6615e+01	4.6603	68.324485	0.000649	6.486220	1.098795	-0.000130
 772	7.6715e+01	4.6410	68.203371	0.000608	6.080831	1.030121	-0.000122
 773	7.6814e+01	4.6215	68.098406	0.000527	5.270054	0.892771	-0.000105
 774	7.6913e+01	4.6010	67.969217	0.000649	6.486220	1.098795	-0.000130
 775	7.7013e+01	4.5809	67.892512	0.000385	3.851193	0.652410	-0.000077
 776	7.7112e+01	4.5611	67.779472	0.000568	5.675442	0.961446	-0.000114
 777	7.7212e+01	4.5412	67.670469	0.000547	5.472748	0.927109	-0.000110
 778	7.7311e+01	4.5214	67.573578	0.000486	4.864665	0.824097	-0.000097
 779	7.7411e+01	4.5010	67.480724	0.000466	4.661970	0.789759	-0.000093
 780	7.7510e+01	4.4811	67.355573	0.000628	6.283525	1.064458	-0.000126
 781	7.7610e+01	4.4619	67.242533	0.000568	5.675442	0.961446	-0.000114
 782	7.7710e+01	4.4418	67.161790	0.000405	4.053887	0.686747	-0.000081
 783	7.7809e+01	4.4225	67.020490	0.000709	7.094303	1.201807	-0.000142
 784	7.7909e+01	4.4018	66.911488	0.000547	5.472748	0.927109	-0.000110
 785	7.8008e+01	4.3829	66.814596	0.000486	4.864665	0.824097	-0.000097
 786	7.8108e+01	4.3616	66.697520	0.000588	5.878137	0.995783	-0.000118
 787	7.8207e+01	4.3427	66.588517	0.000547	5.472748	0.927109	-0.000110
 788	7.8306e+01	4.3221	66.479514	0.000547	5.472748	0.927109	-0.000110
 789	7.8406e+01	4.3027	66.378586	0.000507	5.067359	0.858434	-0.000101
 790	7.8505e+01	4.2826	66.249397	0.000649	6.486220	1.098795	-0.000130
 791	7.8605e+01	4.2625	66.132321	0.000588	5.878137	0.995783	-0.000118
 792	7.8704e+01	4.2421	66.047541	0.000426	4.256582	0.721084	-0.000085
 793	7.8804e+01	4.2225	65.910278	0.000689	6.891609	1.167470	-0.000138
 794	7.8903e+01	4.2033	65.797238	0.000568	5.675442	0.961446	-0.000114
 795	7.9003e+01	4.1823	65.712458	0.000426	4.256582	0.721084	-0.000085
 796	7.9103e+01	4.1640	65.611530	0.000507	5.067359	0.858434	-0.000101
 797	7.9202e+01	4.1437	65.518676	0.000466	4.661970	0.789759	-0.000093
 798	7.9302e+01	4.1229	65.373339	0.000730	7.296997	1.236145	-0.000146
 799	7.9401e+01	4.1026	65.288559	0.000426	4.256582	0.721084	-0.000085
 800	7.9501e+01	4.0829	65.159371	0.000649	6.486220	1.098795	-0.000130
 801	7.9600e+01	4.0636	65.062480	0.000486	4.864665	0.824097	-0.000097
 802	7.9700e+01	4.0425	64.961551	0.000507	5.067359	0.858434	-0.000101
 803	7.9799e+01	4.0227	64.856586	0.000527	5.270054	0.892771	-0.000105
 804	7.9898e+01	4.0038	64.723360	0.000669	6.688914	1.133133	-0.000134
 805	7.9998e+01	3.9833	64.594172	0.000649	6.486220	1.098795	-0.000130
 806	8.0097e+01	3.9640	64.513429	0.000405	4.053887	0.686747	-0.000081
 807	8.0197e+01	3.9441	64.416538	0.000486	4.864665	0.824097	-0.000097
 808	8.0296e+01	3.9233	64.299461	0.000588	5.878137	0.995783	-0.000118
 809	8.0396e+01	3.9037	64.174310	0.000628	6.283525	1.064458	-0.000126
 810	8.0496e+01	3.8839	64.053196	0.000608	6.080831	1.030121	-0.000122
 811	8.0595e+01	3.8639	63.956304	0.000486	4.864665	0.824097	-0.000097
 812	8.0695e+01	3.8435	63.883636	0.000365	3.648499	0.618072	-0.000073
 813	8.0794e+01	3.8239	63.766559	0.000588	5.878137	0.995783	-0.000118
 814	8.0894e+01	3.8036	63.665631	0.000507	5.067359	0.858434	-0.000101
 815	8.0993e+01	3.7844	63.504145	0.000811	8.107775	1.373494	-0.000162
 816	8.1093e+01	3.7656	63.415328	0.000446	4.459276	0.755422	-0.000089
 817	8.1192e+01	3.7450	63.318437	0.000486	4.864665	0.824097	-0.000097
 818	8.1291e+01	3.7249	63.181174	0.000689	6.891609	1.167470	-0.000138
 819	8.1391e+01	3.7053	63.080246	0.000507	5.067359	0.858434	-0.000101
 820	8.1490e+01	3.6867	62.963169	0.000588	5.878137	0.995783	-0.000118
 821	8.1590e+01	3.6657	62.870315	0.000466	4.661970	0.789759	-0.000093
 822	8.1689e+01	3.6446	62.741127	0.000649	6.486220	1.098795	-0.000130
 823	8.1789e+01	3.6251	62.595790	0.000730	7.296997	1.236145	-0.000146
 824	8.1888e+01	3.6056	62.523121	0.000365	3.648499	0.618072	-0.000073
 825	8.1988e+01	3.5851	62.377784	0.000730	7.296997	1.236145	-0.000146
 826	8.2088e+01	3.5654	62.256670	0.000608	6.080831	1.030121	-0.000122
 827	8.2187e+01	3.5449	62.147668	0.000547	5.472748	0.927109	-0.000110
 828	8.2287e+01	3.5255	62.010405	0.000689	6.891609	1.167470	-0.000138
 829	8.2386e+01	3.5049	61.885254	0.000628	6.283525	1.064458	-0.000126
 830	8.2486e+01	3.4859	61.820660	0.000324	3.243110	0.549398	-0.000065
 831	8.2585e+01	3.4657	61.691471	0.000649	6.486220	1.098795	-0.000130
 832	8.2684e+01	3.4460	61.610728	0.000405	4.053887	0.686747	-0.000081
 833	8.2784e+01	3.4268	61.416946	0.000973	9.729330	1.648193	-0.000195
 834	8.2883e+01	3.4062	61.344278	0.000365	3.648499	0.618072	-0.000073
 835	8.2983e+01	3.3868	61.247386	0.000486	4.864665	0.824097	-0.000097
 836	8.3082e+01	3.3667	61.085901	0.000811	8.107775	1.373494	-0.000162
 837	8.3182e+01	3.3460	61.017270	0.000345	3.445804	0.583735	-0.000069
 838	8.3281e+01	3.3260	60.831561	0.000932	9.323941	1.579518	-0.000187
 839	8.3381e+01	3.3066	60.754856	0.000385	3.851193	0.652410	-0.000077
 840	8.3481e+01	3.2867	60.621630	0.000669	6.688914	1.133133	-0.000134
 841	8.3580e+01	3.2666	60.504553	0.000588	5.878137	0.995783	-0.000118
 842	8.3680e+01	3.2455	60.403625	0.000507	5.067359	0.858434	-0.000101
 843	8.3779e+01	3.2264	60.278474	0.000628	6.283525	1.064458	-0.000126
 844	8.3879e+01	3.2066	60.169471	0.000547	5.472748	0.927109	-0.000110
 845	8.3978e+01	3.1867	60.044320	0.000628	6.283525	1.064458	-0.000126
 846	8.4078e+01	3.1667	59.898983	0.000730	7.296997	1.236145	-0.000146
 847	8.4177e+01	3.1473	59.789980	0.000547	5.472748	0.927109	-0.000110
 848	8.4276e+01	3.1271	59.656755	0.000669	6.688914	1.133133	-0.000134
 849	8.4376e+01	3.1063	59.571975	0.000426	4.256582	0.721084	-0.000085
 850	8.4475e+01	3.0869	59.426638	0.000730	7.296997	1.236145	-0.000146
 851	8.4575e+01	3.0679	59.325710	0.000507	5.067359	0.858434	-0.000101
 852	8.4674e+01	3.0475	59.180373	0.000730	7.296997	1.236145	-0.000146
 853	8.4774e+01	3.0280	59.055222	0.000628	6.283525	1.064458	-0.000126
 854	8.4874e+01	3.0083	58.926033	0.000649	6.486220	1.098795	-0.000130
 855	8.4973e+01	2.9871	58.821068	0.000527	5.270054	0.892771	-0.000105
 856	8.5073e+01	2.9682	58.691879	0.000649	6.486220	1.098795	-0.000130
 857	8.5172e+01	2.9480	58.582877	0.000547	5.472748	0.927109	-0.000110
 858	8.5272e+01	2.9282	58.469837	0.000568	5.675442	0.961446	-0.000114
 859	8.5371e+01	2.9076	58.348723	0.000608	6.080831	1.030121	-0.000122
 860	8.5471e+01	2.8874	58.227609	0.000608	6.080831	1.030121	-0.000122
 861	8.5570e+01	2.8679	58.090346	0.000689	6.891609	1.167470	-0.000138
 862	8.5669e+01	2.8480	57.965195	0.000628	6.283525	1.064458	-0.000126
 863	8.5769e+01	2.8280	57.848118	0.000588	5.878137	0.995783	-0.000118
 864	8.5868e+01	2.8085	57.694707	0.000770	7.702386	1.304820	-0.000154
 865	8.5968e+01	2.7889	57.593778	0.000507	5.067359	0.858434	-0.000101
 866	8.6067e+01	2.7686	57.476702	0.000588	5.878137	0.995783	-0.000118
 867	8.6167e+01	2.7474	57.383847	0.000466	4.661970	0.789759	-0.000093
 868	8.6266e+01	2.7285	57.218325	0.000831	8.310469	1.407832	-0.000166
 869	8.6366e+01	2.7097	57.101248	0.000588	5.878137	0.995783	-0.000118
 870	8.6466e+01	2.6881	56.980134	0.000608	6.080831	1.030121	-0.000122
 871	8.6565e+01	2.6685	56.842871	0.000689	6.891609	1.167470	-0.000138
 872	8.6665e+01	2.6487	56.713683	0.000649	6.486220	1.098795	-0.000130
 873	8.6764e+01	2.6297	56.632940	0.000405	4.053887	0.686747	-0.000081
 874	8.6864e+01	2.6080	56.463380	0.000851	8.513164	1.442169	-0.000170
 875	8.6963e+01	2.5887	56.378601	0.000426	4.256582	0.721084	-0.000085
 876	8.7063e+01	2.5695	56.225189	0.000770	7.702386	1.304820	-0.000154
 877	8.7162e+01	2.5488	56.104075	0.000608	6.080831	1.030121	-0.000122
 878	8.7261e+01	2.5283	55.995073	0.000547	5.472748	0.927109	-0.000110
 879	8.7361e+01	2.5103	55.877996	0.000588	5.878137	0.995783	-0.000118
 880	8.7460e+01	2.4895	55.740733	0.000689	6.891609	1.167470	-0.000138
 881	8.7560e+01	2.4679	55.595396	0.000730	7.296997	1.236145	-0.000146
 882	8.7659e+01	2.4493	55.437948	0.000791	7.905080	1.339157	-0.000158
 883	8.7759e+01	2.4300	55.353168	0.000426	4.256582	0.721084	-0.000085
 884	8.7859e+01	2.4094	55.223980	0.000649	6.486220	1.098795	-0.000130
 885	8.7958e+01	2.3905	55.094791	0.000649	6.486220	1.098795	-0.000130
 886	8.8058e+01	2.3699	54.973677	0.000608	6.080831	1.030121	-0.000122
 887	8.8157e+01	2.3502	54.844489	0.000649	6.486220	1.098795	-0.000130
 888	8.8257e+01	2.3302	54.658781	0.000932	9.323941	1.579518	-0.000187
 889	8.8356e+01	2.3109	54.553815	0.000527	5.270054	0.892771	-0.000105
 890	8.8456e+01	2.2906	54.424627	0.000649	6.486220	1.098795	-0.000130
 891	8.8555e+01	2.2700	54.291401	0.000669	6.688914	1.133133	-0.000134
 892	8.8654e+01	2.2504	54.210659	0.000405	4.053887	0.686747	-0.000081
 893	8.8754e+01	2.2307	54.081470	0.000649	6.486220	1.098795	-0.000130
 894	8.8853e+01	2.2111	53.940171	0.000709	7.094303	1.201807	-0.000142
 895	8.8953e+01	2.1894	53.831168	0.000547	5.472748	0.927109	-0.000110
 896	8.9052e+01	2.1703	53.665645	0.000831	8.310469	1.407832	-0.000166
 897	8.9152e+01	2.1519	53.548568	0.000588	5.878137	0.995783	-0.000118
 898	8.9251e+01	2.1305	53.383046	0.000831	8.310469	1.407832	-0.000166
 899	8.9351e+01	2.1107	53.261932	0.000608	6.080831	1.030121	-0.000122
 900	8.9451e+01	2.0907	53.156966	0.000527	5.270054	0.892771	-0.000105
 901	8.9550e+01	2.0709	52.987407	0.000851	8.513164	1.442169	-0.000170
 902	8.9650e+01	2.0523	52.902627	0.000426	4.256582	0.721084	-0.000085
 903	8.9749e+01	2.0313	52.741141	0.000811	8.107775	1.373494	-0.000162
 904	8.9849e+01	2.0116	52.583693	0.000791	7.905080	1.339157	-0.000158
 905	8.9948e+01	1.9916	52.482765	0.000507	5.067359	0.858434	-0.000101
 906	9.0047e+01	1.9722	52.353576	0.000649	6.486220	1.098795	-0.000130
 907	9.0147e+01	1.9517	52.264759	0.000446	4.459276	0.755422	-0.000089
 908	9.0246e+01	1.9315	52.123460	0.000709	7.094303	1.201807	-0.000142
 909	9.0346e+01	1.9113	51.982160	0.000709	7.094303	1.201807	-0.000142
 910	9.0445e+01	1.8914	51.861046	0.000608	6.080831	1.030121	-0.000122
 911	9.0545e+01	1.8719	51.727820	0.000669	6.688914	1.133133	-0.000134
 912	9.0644e+01	1.8522	51.622855	0.000527	5.270054	0.892771	-0.000105
 913	9.0744e+01	1.8315	51.416961	0.001034	10.337413	1.751205	-0.000207
 914	9.0844e+01	1.8118	51.348329	0.000345	3.445804	0.583735	-0.000069
 915	9.0943e+01	1.7919	51.211067	0.000689	6.891609	1.167470	-0.000138
 916	9.1043e+01	1.7718	51.114176	0.000486	4.864665	0.824097	-0.000097
 917	9.1142e+01	1.7531	50.964802	0.000750	7.499692	1.270482	-0.000150
 918	9.1242e+01	1.7322	50.827539	0.000689	6.891609	1.167470	-0.000138
 919	9.1341e+01	1.7129	50.706425	0.000608	6.080831	1.030121	-0.000122
 920	9.1441e+01	1.6927	50.573199	0.000669	6.688914	1.133133	-0.000134
 921	9.1540e+01	1.6723	50.444011	0.000649	6.486220	1.098795	-0.000130
 922	9.1639e+01	1.6533	50.322897	0.000608	6.080831	1.030121	-0.000122
 923	9.1739e+01	1.6326	50.153337	0.000851	8.513164	1.442169	-0.000170
 924	9.1838e+01	1.6128	50.052409	0.000507	5.067359	0.858434	-0.000101
 925	9.1938e+01	1.5931	49.939369	0.000568	5.675442	0.961446	-0.000114
 926	9.2037e+01	1.5735	49.810181	0.000649	6.486220	1.098795	-0.000130
 927	9.2137e+01	1.5530	49.680992	0.000649	6.486220	1.098795	-0.000130
 928	9.2237e+01	1.5336	49.535656	0.000730	7.296997	1.236145	-0.000146
 929	9.2336e+01	1.5133	49.438764	0.000486	4.864665	0.824097	-0.000097
 930	9.2436e+01	1.4936	49.281316	0.000791	7.905080	1.339157	-0.000158
 931	9.2535e+01	1.4723	49.148090	0.000669	6.688914	1.133133	-0.000134
 932	9.2635e+01	1.4532	49.051199	0.000486	4.864665	0.824097	-0.000097
 933	9.2734e+01	1.4343	48.942197	0.000547	5.472748	0.927109	-0.000110
 934	9.2834e+01	1.4133	48.776674	0.000831	8.310469	1.407832	-0.000166
 935	9.2933e+01	1.3941	48.635374	0.000709	7.094303	1.201807	-0.000142
 936	9.3032e+01	1.3726	48.530409	0.000527	5.270054	0.892771	-0.000105
 937	9.3132e+01	1.3535	48.409295	0.000608	6.080831	1.030121	-0.000122
 938	9.3231e+01	1.3330	48.288181	0.000608	6.080831	1.030121	-0.000122
 939	9.3331e+01	1.3139	48.122658	0.000831	8.310469	1.407832	-0.000166
 940	9.3430e+01	1.2946	48.017692	0.000527	5.270054	0.892771	-0.000105
 941	9.3530e+01	1.2741	47.872356	0.000730	7.296997	1.236145	-0.000146
 942	9.3629e+01	1.2545	47.747204	0.000628	6.283525	1.064458	-0.000126
 943	9.3729e+01	1.2347	47.638202	0.000547	5.472748	0.927109	-0.000110
 944	9.3829e+01	1.2148	47.492865	0.000730	7.296997	1.236145	-0.000146
 945	9.3928e+01	1.1959	47.359639	0.000669	6.688914	1.133133	-0.000134
 946	9.4028e+01	1.1749	47.250637	0.000547	5.472748	0.927109	-0.000110
 947	9.4127e+01	1.1554	47.109337	0.000709	7.094303	1.201807	-0.000142
 948	9.4227e+01	1.1356	47.012446	0.000486	4.864665	0.824097	-0.000097
 949	9.4326e+01	1.1150	46.818663	0.000973	9.729330	1.648193	-0.000195
 950	9.4425e+01	1.0956	46.697549	0.000608	6.080831	1.030121	-0.000122
 951	9.4525e+01	1.0758	46.612769	0.000426	4.256582	0.721084	-0.000085
 952	9.4624e+01	1.0556	46.487618	0.000628	6.283525	1.064458	-0.000126
 953	9.4724e+01	1.0349	46.338244	0.000750	7.499692	1.270482	-0.000150
 954	9.4823e+01	1.0165	46.196944	0.000709	7.094303	1.201807	-0.000142
 955	9.4923e+01	0.9945	46.075830	0.000608	6.080831	1.030121	-0.000122
 956	9.5022e+01	0.9766	45.987013	0.000446	4.459276	0.755422	-0.000089
 957	9.5122e+01	0.9559	45.793231	0.000973	9.729330	1.648193	-0.000195
 958	9.5222e+01	0.9354	45.692302	0.000507	5.067359	0.858434	-0.000101
 959	9.5321e+01	0.9161	45.546965	0.000730	7.296997	1.236145	-0.000146
 960	9.5421e+01	0.8954	45.409703	0.000689	6.891609	1.167470	-0.000138
 961	9.5520e+01	0.8768	45.300700	0.000547	5.472748	0.927109	-0.000110
 962	9.5620e+01	0.8566	45.175549	0.000628	6.283525	1.064458	-0.000126
 963	9.5719e+01	0.8357	45.030212	0.000730	7.296997	1.236145	-0.000146
 964	9.5819e+01	0.8167	44.921209	0.000547	5.472748	0.927109	-0.000110
 965	9.5918e+01	0.7960	44.763761	0.000791	7.905080	1.339157	-0.000158
 966	9.6017e+01	0.7766	44.670907	0.000466	4.661970	0.789759	-0.000093
 967	9.6117e+01	0.7567	44.537681	0.000669	6.688914	1.133133	-0.000134
 968	9.6216e+01	0.7358	44.412530	0.000628	6.283525	1.064458	-0.000126
 969	9.6316e+01	0.7172	44.283342	0.000649	6.486220	1.098795	-0.000130
 970	9.6415e+01	0.6962	44.105708	0.000892	8.918552	1.510844	-0.000179
 971	9.6515e+01	0.6770	44.037077	0.000345	3.445804	0.583735	-0.000069
 972	9.6615e+01	0.6564	43.895777	0.000709	7.094303	1.201807	-0.000142
 973	9.6714e+01	0.6370	43.762551	0.000669	6.688914	1.133133	-0.000134
 974	9.6814e+01	0.6168	43.641437	0.000608	6.080831	1.030121	-0.000122
 975	9.6913e+01	0.5971	43.496100	0.000730	7.296997	1.236145	-0.000146
 976	9.7013e+01	0.5775	43.374986	0.000608	6.080831	1.030121	-0.000122
 977	9.7112e+01	0.5582	43.265984	0.000547	5.472748	0.927109	-0.000110
 978	9.7212e+01	0.5369	43.112573	0.000770	7.702386	1.304820	-0.000154
 979	9.7311e+01	0.5178	42.995496	0.000588	5.878137	0.995783	-0.000118
 980	9.7410e+01	0.4971	42.878419	0.000588	5.878137	0.995783	-0.000118
 981	9.7510e+01	0.4774	42.708859	0.000851	8.513164	1.442169	-0.000170
 982	9.7609e+01	0.4575	42.583708	0.000628	6.283525	1.064458	-0.000126
 983	9.7709e+01	0.4372	42.470668	0.000568	5.675442	0.961446	-0.000114
 984	9.7808e+01	0.4176	42.325331	0.000730	7.296997	1.236145	-0.000146
 985	9.7908e+01	0.3981	42.167883	0.000791	7.905080	1.339157	-0.000158
 986	9.8007e+01	0.3781	42.070992	0.000486	4.864665	0.824097	-0.000097
 987	9.8107e+01	0.3586	41.978137	0.000466	4.661970	0.789759	-0.000093
 988	9.8207e+01	0.3381	41.796466	0.000912	9.121247	1.545181	-0.000183
 989	9.8306e+01	0.3185	41.711686	0.000426	4.256582	0.721084	-0.000085
 990	9.8406e+01	0.2984	41.562312	0.000750	7.499692	1.270482	-0.000150
 991	9.8505e+01	0.2779	41.425050	0.000689	6.891609	1.167470	-0.000138
 992	9.8605e+01	0.2592	41.271639	0.000770	7.702386	1.304820	-0.000154
 993	9.8704e+01	0.2377	41.114190	0.000791	7.905080	1.339157	-0.000158
 994	9.8803e+01	0.2179	41.041522	0.000365	3.648499	0.618072	-0.000073
 995	9.8903e+01	0.1991	40.896185	0.000730	7.296997	1.236145	-0.000146
 996	9.9002e+01	0.1788	40.779108	0.000588	5.878137	0.995783	-0.000118
 997	9.9102e+01	0.1589	40.605511	0.000872	8.715858	1.476506	-0.000174
 998	9.9201e+01	0.1382	40.472286	0.000669	6.688914	1.133133	-0.000134
 999	9.9301e+01	0.1188	40.343097	0.000649	6.486220	1.098795	-0.000130
1000	9.9400e+01	0.0985	40.213909	0.000649	6.486220	1.098795	-0.000130
1001	9.9500e+01	0.0791	40.096832	0.000588	5.878137	0.995783	-0.000118
1002	9.9600e+01	0.0586	39.947458	0.000750	7.499692	1.270482	-0.000150
1003	9.9699e+01	0.0382	39.822307	0.000628	6.283525	1.064458	-0.000126
1004	9.9799e+01	0.0195	39.664859	0.000791	7.905080	1.339157	-0.000158
1005	9.9898e+01	-0.0007	39.527596	0.000689	6.891609	1.167470	-0.000138
1006	9.9998e+01	-0.0185	39.406482	0.000608	6.080831	1.030121	-0.000122
1007	1.0010e+02	-0.0385	39.232885	0.000872	8.715858	1.476506	-0.000174
1008	1.0020e+02	-0.0591	39.123882	0.000547	5.472748	0.927109	-0.000110
1009	1.0030e+02	-0.0795	38.990657	0.000669	6.688914	1.133133	-0.000134
1010	1.0040e+02	-0.0989	38.861469	0.000649	6.486220	1.098795	-0.000130
1011	1.0050e+02	-0.1181	38.728243	0.000669	6.688914	1.133133	-0.000134
1012	1.0059e+02	-0.1376	38.619240	0.000547	5.472748	0.927109	-0.000110
1013	1.0069e+02	-0.1575	38.437569	0.000912	9.121247	1.545181	-0.000183
1014	1.0079e+02	-0.1772	38.284158	0.000770	7.702386	1.304820	-0.000154
1015	1.0089e+02	-0.1994	38.171118	0.000568	5.675442	0.961446	-0.000114
1016	1.0099e+02	-0.2187	38.070190	0.000507	5.067359	0.858434	-0.000101
1017	1.0109e+02	-0.2386	37.892556	0.000892	8.918552	1.510844	-0.000179
1018	1.0119e+02	-0.2589	37.751256	0.000709	7.094303	1.201807	-0.000142
1019	1.0129e+02	-0.2778	37.618031	0.000669	6.688914	1.133133	-0.000134
1020	1.0139e+02	-0.2990	37.452508	0.000831	8.310469	1.407832	-0.000166
1021	1.0149e+02	-0.3184	37.339468	0.000568	5.675442	0.961446	-0.000114
1022	1.0159e+02	-0.3369	37.234503	0.000527	5.270054	0.892771	-0.000105
1023	1.0169e+02	-0.3576	37.036683	0.000993	9.932024	1.682530	-0.000199
1024	1.0179e+02	-0.3772	36.927681	0.000547	5.472748	0.927109	-0.000110
1025	1.0189e+02	-0.3979	36.778307	0.000750	7.499692	1.270482	-0.000150
1026	1.0199e+02	-0.4174	36.624895	0.000770	7.702386	1.304820	-0.000154
1027	1.0209e+02	-0.4376	36.495707	0.000649	6.486220	1.098795	-0.000130
1028	1.0219e+02	-0.4577	36.410927	0.000426	4.256582	0.721084	-0.000085
1029	1.0229e+02	-0.4758	36.229256	0.000912	9.121247	1.545181	-0.000183
1030	1.0239e+02	-0.4975	36.091993	0.000689	6.891609	1.167470	-0.000138
1031	1.0248e+02	-0.5169	35.946657	0.000730	7.296997	1.236145	-0.000146
1032	1.0258e+02	-0.5378	35.813431	0.000669	6.688914	1.133133	-0.000134
1033	1.0268e+02	-0.5573	35.668094	0.000730	7.296997	1.236145	-0.000146
1034	1.0278e+02	-0.5769	35.538906	0.000649	6.486220	1.098795	-0.000130
1035	1.0288e+02	-0.5978	35.421829	0.000588	5.878137	0.995783	-0.000118
1036	1.0298e+02	-0.6172	35.244195	0.000892	8.918552	1.510844	-0.000179
1037	1.0308e+02	-0.6367	35.110970	0.000669	6.688914	1.133133	-0.000134
1038	1.0318e+02	-0.6567	35.026190	0.000426	4.256582	0.721084	-0.000085
1039	1.0328e+02	-0.6767	34.840481	0.000932	9.323941	1.579518	-0.000187
1040	1.0338e+02	-0.6966	34.727442	0.000568	5.675442	0.961446	-0.000114
1041	1.0348e+02	-0.7165	34.582105	0.000730	7.296997	1.236145	-0.000146
1042	1.0358e+02	-0.7368	34.448879	0.000669	6.688914	1.133133	-0.000134
1043	1.0368e+02	-0.7561	34.242985	0.001034	10.337413	1.751205	-0.000207
1044	1.0378e+02	-0.7764	34.097648	0.000730	7.296997	1.236145	-0.000146
1045	1.0388e+02	-0.7956	34.012869	0.000426	4.256582	0.721084	-0.000085
1046	1.0398e+02	-0.8165	33.863495	0.000750	7.499692	1.270482	-0.000150
1047	1.0408e+02	-0.8371	33.722195	0.000709	7.094303	1.201807	-0.000142
1048	1.0418e+02	-0.8562	33.588969	0.000669	6.688914	1.133133	-0.000134
1049	1.0428e+02	-0.8760	33.492078	0.000486	4.864665	0.824097	-0.000097
1050	1.0438e+02	-0.8949	33.302333	0.000953	9.526635	1.613856	-0.000191
1051	1.0447e+02	-0.9158	33.144884	0.000791	7.905080	1.339157	-0.000158
1052	1.0457e+02	-0.9353	32.987436	0.000791	7.905080	1.339157	-0.000158
1053	1.0467e+02	-0.9552	32.858248	0.000649	6.486220	1.098795	-0.000130
1054	1.0477e+02	-0.9765	32.737134	0.000608	6.080831	1.030121	-0.000122
1055	1.0487e+02	-0.9952	32.567574	0.000851	8.513164	1.442169	-0.000170
1056	1.0497e+02	-1.0147	32.458571	0.000547	5.472748	0.927109	-0.000110
1057	1.0507e+02	-1.0355	32.293049	0.000831	8.310469	1.407832	-0.000166
1058	1.0517e+02	-1.0550	32.167898	0.000628	6.283525	1.064458	-0.000126
1059	1.0527e+02	-1.0747	32.022561	0.000730	7.296997	1.236145	-0.000146
1060	1.0537e+02	-1.0950	31.836852	0.000932	9.323941	1.579518	-0.000187
1061	1.0547e+02	-1.1148	31.727850	0.000547	5.472748	0.927109	-0.000110
1062	1.0557e+02	-1.1346	31.578476	0.000750	7.499692	1.270482	-0.000150
1063	1.0567e+02	-1.1550	31.421027	0.000791	7.905080	1.339157	-0.000158
1064	1.0577e+02	-1.1747	31.275691	0.000730	7.296997	1.236145	-0.000146
1065	1.0587e+02	-1.1953	31.126317	0.000750	7.499692	1.270482	-0.000150
1066	1.0597e+02	-1.2154	31.001165	0.000628	6.283525	1.064458	-0.000126
1067	1.0607e+02	-1.2348	30.880051	0.000608	6.080831	1.030121	-0.000122
1068	1.0617e+02	-1.2546	30.718566	0.000811	8.107775	1.373494	-0.000162
1069	1.0627e+02	-1.2752	30.573229	0.000730	7.296997	1.236145	-0.000146
1070	1.0637e+02	-1.2930	30.407706	0.000831	8.310469	1.407832	-0.000166
1071	1.0647e+02	-1.3139	30.294667	0.000568	5.675442	0.961446	-0.000114
1072	1.0656e+02	-1.3338	30.169515	0.000628	6.283525	1.064458	-0.000126
1073	1.0666e+02	-1.3537	29.995919	0.000872	8.715858	1.476506	-0.000174
1074	1.0676e+02	-1.3732	29.878842	0.000588	5.878137	0.995783	-0.000118
1075	1.0686e+02	-1.3933	29.765802	0.000568	5.675442	0.961446	-0.000114
1076	1.0696e+02	-1.4138	29.612391	0.000770	7.702386	1.304820	-0.000154
1077	1.0706e+02	-1.4336	29.483202	0.000649	6.486220	1.098795	-0.000130
1078	1.0716e+02	-1.4529	29.333828	0.000750	7.499692	1.270482	-0.000150
1079	1.0726e+02	-1.4736	29.180417	0.000770	7.702386	1.304820	-0.000154
1080	1.0736e+02	-1.4923	29.047192	0.000669	6.688914	1.133133	-0.000134
1081	1.0746e+02	-1.5137	28.881669	0.000831	8.310469	1.407832	-0.000166
1082	1.0756e+02	-1.5334	28.756518	0.000628	6.283525	1.064458	-0.000126
1083	1.0766e+02	-1.5521	28.631367	0.000628	6.283525	1.064458	-0.000126
1084	1.0776e+02	-1.5736	28.494104	0.000689	6.891609	1.167470	-0.000138
1085	1.0786e+02	-1.5926	28.328581	0.000831	8.310469	1.407832	-0.000166
1086	1.0796e+02	-1.6129	28.195356	0.000669	6.688914	1.133133	-0.000134
1087	1.0806e+02	-1.6320	28.082316	0.000568	5.675442	0.961446	-0.000114
1088	1.0816e+02	-1.6534	27.932942	0.000750	7.499692	1.270482	-0.000150
1089	1.0826e+02	-1.6725	27.787605	0.000730	7.296997	1.236145	-0.000146
1090	1.0836e+02	-1.6923	27.670528	0.000588	5.878137	0.995783	-0.000118
1091	1.0845e+02	-1.7130	27.521154	0.000750	7.499692	1.270482	-0.000150
1092	1.0855e+02	-1.7329	27.396003	0.000628	6.283525	1.064458	-0.000126
1093	1.0865e+02	-1.7530	27.266815	0.000649	6.486220	1.098795	-0.000130
1094	1.0875e+02	-1.7718	27.093218	0.000872	8.715858	1.476506	-0.000174
1095	1.0885e+02	-1.7922	26.951918	0.000709	7.094303	1.201807	-0.000142
1096	1.0895e+02	-1.8120	26.822730	0.000649	6.486220	1.098795	-0.000130
1097	1.0905e+02	-1.8320	26.729876	0.000466	4.661970	0.789759	-0.000093
1098	1.0915e+02	-1.8526	26.556279	0.000872	8.715858	1.476506	-0.000174
1099	1.0925e+02	-1.8718	26.410942	0.000730	7.296997	1.236145	-0.000146
1100	1.0935e+02	-1.8925	26.261568	0.000750	7.499692	1.270482	-0.000150
1101	1.0945e+02	-1.9122	26.124305	0.000689	6.891609	1.167470	-0.000138
1102	1.0955e+02	-1.9316	26.031451	0.000466	4.661970	0.789759	-0.000093
1103	1.0965e+02	-1.9522	25.898226	0.000669	6.688914	1.133133	-0.000134
1104	1.0975e+02	-1.9731	25.700406	0.000993	9.932024	1.682530	-0.000199
1105	1.0985e+02	-1.9911	25.619663	0.000405	4.053887	0.686747	-0.000081
1106	1.0995e+02	-2.0114	25.458178	0.000811	8.107775	1.373494	-0.000162
1107	1.1005e+02	-2.0316	25.324952	0.000669	6.688914	1.133133	-0.000134
1108	1.1015e+02	-2.0511	25.131170	0.000973	9.729330	1.648193	-0.000195
1109	1.1025e+02	-2.0715	25.026204	0.000527	5.270054	0.892771	-0.000105
1110	1.1035e+02	-2.0903	24.933350	0.000466	4.661970	0.789759	-0.000093
1111	1.1044e+02	-2.1112	24.747642	0.000932	9.323941	1.579518	-0.000187
1112	1.1054e+02	-2.1307	24.642677	0.000527	5.270054	0.892771	-0.000105
1113	1.1064e+02	-2.1507	24.465043	0.000892	8.918552	1.510844	-0.000179
1114	1.1074e+02	-2.1706	24.364114	0.000507	5.067359	0.858434	-0.000101
1115	1.1084e+02	-2.1906	24.251074	0.000568	5.675442	0.961446	-0.000114
1116	1.1094e+02	-2.2110	24.105737	0.000730	7.296997	1.236145	-0.000146
1117	1.1104e+02	-2.2305	23.920029	0.000932	9.323941	1.579518	-0.000187
1118	1.1114e+02	-2.2504	23.839287	0.000405	4.053887	0.686747	-0.000081
1119	1.1124e+02	-2.2707	23.685875	0.000770	7.702386	1.304820	-0.000154
1120	1.1134e+02	-2.2899	23.564761	0.000608	6.080831	1.030121	-0.000122
1121	1.1144e+02	-2.3099	23.391164	0.000872	8.715858	1.476506	-0.000174
1122	1.1154e+02	-2.3300	23.306385	0.000426	4.256582	0.721084	-0.000085
1123	1.1164e+02	-2.3496	23.169122	0.000689	6.891609	1.167470	-0.000138
1124	1.1174e+02	-2.3703	22.983414	0.000932	9.323941	1.579518	-0.000187
1125	1.1184e+02	-2.3894	22.850188	0.000669	6.688914	1.133133	-0.000134
1126	1.1194e+02	-2.4100	22.708889	0.000709	7.094303	1.201807	-0.000142
1127	1.1204e+02	-2.4307	22.555477	0.000770	7.702386	1.304820	-0.000154
1128	1.1214e+02	-2.4504	22.442438	0.000568	5.675442	0.961446	-0.000114
1129	1.1224e+02	-2.4695	22.309212	0.000669	6.688914	1.133133	-0.000134
1130	1.1234e+02	-2.4893	22.151764	0.000791	7.905080	1.339157	-0.000158
1131	1.1244e+02	-2.5090	21.990278	0.000811	8.107775	1.373494	-0.000162
1132	1.1253e+02	-2.5296	21.917610	0.000365	3.648499	0.618072	-0.000073
1133	1.1263e+02	-2.5488	21.772273	0.000730	7.296997	1.236145	-0.000146
1134	1.1273e+02	-2.5695	21.635010	0.000689	6.891609	1.167470	-0.000138
1135	1.1283e+02	-2.5896	21.481599	0.000770	7.702386	1.304820	-0.000154
1136	1.1293e+02	-2.6083	21.380671	0.000507	5.067359	0.858434	-0.000101
1137	1.1303e+02	-2.6286	21.247445	0.000669	6.688914	1.133133	-0.000134
1138	1.1313e+02	-2.6493	21.102109	0.000730	7.296997	1.236145	-0.000146
1139	1.1323e+02	-2.6679	20.980994	0.000608	6.080831	1.030121	-0.000122
1140	1.1333e+02	-2.6883	20.831620	0.000750	7.499692	1.270482	-0.000150
1141	1.1343e+02	-2.7088	20.710506	0.000608	6.080831	1.030121	-0.000122
1142	1.1353e+02	-2.7287	20.573244	0.000689	6.891609	1.167470	-0.000138
1143	1.1363e+02	-2.7480	20.419833	0.000770	7.702386	1.304820	-0.000154
1144	1.1373e+02	-2.7681	20.310830	0.000547	5.472748	0.927109	-0.000110
1145	1.1383e+02	-2.7878	20.217976	0.000466	4.661970	0.789759	-0.000093
1146	1.1393e+02	-2.8087	20.056490	0.000811	8.107775	1.373494	-0.000162
1147	1.1403e+02	-2.8277	19.899042	0.000791	7.905080	1.339157	-0.000158
1148	1.1413e+02	-2.8479	19.777928	0.000608	6.080831	1.030121	-0.000122
1149	1.1423e+02	-2.8679	19.681037	0.000486	4.864665	0.824097	-0.000097
1150	1.1433e+02	-2.8871	19.515514	0.000831	8.310469	1.407832	-0.000166
1151	1.1442e+02	-2.9079	19.382289	0.000669	6.688914	1.133133	-0.000134
1152	1.1452e+02	-2.9269	19.240989	0.000709	7.094303	1.201807	-0.000142
1153	1.1462e+02	-2.9471	19.099689	0.000709	7.094303	1.201807	-0.000142
1154	1.1472e+02	-2.9681	18.974538	0.000628	6.283525	1.064458	-0.000126
1155	1.1482e+02	-2.9871	18.893795	0.000405	4.053887	0.686747	-0.000081
1156	1.1492e+02	-3.0075	18.704050	0.000953	9.526635	1.613856	-0.000191
1157	1.1502e+02	-3.0273	18.595047	0.000547	5.472748	0.927109	-0.000110
1158	1.1512e+02	-3.0472	18.465859	0.000649	6.486220	1.098795	-0.000130
1159	1.1522e+02	-3.0676	18.312448	0.000770	7.702386	1.304820	-0.000154
1160	1.1532e+02	-3.0870	18.187296	0.000628	6.283525	1.064458	-0.000126
1161	1.1542e+02	-3.1075	18.045997	0.000709	7.094303	1.201807	-0.000142
1162	1.1552e+02	-3.1264	17.941031	0.000527	5.270054	0.892771	-0.000105
1163	1.1562e+02	-3.1473	17.731100	0.001054	10.540107	1.785542	-0.000211
1164	1.1572e+02	-3.1673	17.614023	0.000588	5.878137	0.995783	-0.000118
1165	1.1582e+02	-3.1863	17.492909	0.000608	6.080831	1.030121	-0.000122
1166	1.1592e+02	-3.2068	17.412166	0.000405	4.053887	0.686747	-0.000081
1167	1.1602e+02	-3.2274	17.234532	0.000892	8.918552	1.510844	-0.000179
1168	1.1612e+02	-3.2455	17.121493	0.000568	5.675442	0.961446	-0.000114
1169	1.1622e+02	-3.2660	16.947896	0.000872	8.715858	1.476506	-0.000174
1170	1.1632e+02	-3.2857	16.867153	0.000405	4.053887	0.686747	-0.000081
1171	1.1642e+02	-3.3058	16.709705	0.000791	7.905080	1.339157	-0.000158
1172	1.1651e+02	-3.3261	16.560331	0.000750	7.499692	1.270482	-0.000150
1173	1.1661e+02	-3.3469	16.419031	0.000709	7.094303	1.201807	-0.000142
1174	1.1671e+02	-3.3658	16.330214	0.000446	4.459276	0.755422	-0.000089
1175	1.1681e+02	-3.3862	16.152580	0.000892	8.918552	1.510844	-0.000179
1176	1.1691e+02	-3.4061	16.019355	0.000669	6.688914	1.133133	-0.000134
1177	1.1701e+02	-3.4253	15.906315	0.000568	5.675442	0.961446	-0.000114
1178	1.1711e+02	-3.4454	15.748867	0.000791	7.905080	1.339157	-0.000158
1179	1.1721e+02	-3.4650	15.627752	0.000608	6.080831	1.030121	-0.000122
1180	1.1731e+02	-3.4855	15.498564	0.000649	6.486220	1.098795	-0.000130
1181	1.1741e+02	-3.5056	15.324967	0.000872	8.715858	1.476506	-0.000174
1182	1.1751e+02	-3.5246	15.211927	0.000568	5.675442	0.961446	-0.000114
1183	1.1761e+02	-3.5454	15.098888	0.000568	5.675442	0.961446	-0.000114
1184	1.1771e+02	-3.5649	14.941439	0.000791	7.905080	1.339157	-0.000158
1185	1.1781e+02	-3.5844	14.796102	0.000730	7.296997	1.236145	-0.000146
1186	1.1791e+02	-3.6050	14.679026	0.000588	5.878137	0.995783	-0.000118
1187	1.1801e+02	-3.6254	14.533689	0.000730	7.296997	1.236145	-0.000146
1188	1.1811e+02	-3.6441	14.400463	0.000669	6.688914	1.133133	-0.000134
1189	1.1821e+02	-3.6650	14.238978	0.000811	8.107775	1.373494	-0.000162
1190	1.1831e+02	-3.6852	14.117864	0.000608	6.080831	1.030121	-0.000122
1191	1.1841e+02	-3.7042	13.988675	0.000649	6.486220	1.098795	-0.000130
1192	1.1850e+02	-3.7238	13.859487	0.000649	6.486220	1.098795	-0.000130
1193	1.1860e+02	-3.7454	13.718187	0.000709	7.094303	1.201807	-0.000142
1194	1.1870e+02	-3.7645	13.601110	0.000588	5.878137	0.995783	-0.000118
1195	1.1880e+02	-3.7846	13.439625	0.000811	8.107775	1.373494	-0.000162
1196	1.1890e+02	-3.8037	13.270065	0.000851	8.513164	1.442169	-0.000170
1197	1.1900e+02	-3.8241	13.177211	0.000466	4.661970	0.789759	-0.000093
1198	1.1910e+02	-3.8438	13.019763	0.000791	7.905080	1.339157	-0.000158
1199	1.1920e+02	-3.8640	12.886537	0.000669	6.688914	1.133133	-0.000134
1200	1.1930e+02	-3.8834	12.765423	0.000608	6.080831	1.030121	-0.000122
1201	1.1940e+02	-3.9035	12.616049	0.000750	7.499692	1.270482	-0.000150
1202	1.1950e+02	-3.9241	12.490898	0.000628	6.283525	1.064458	-0.000126
1203	1.1960e+02	-3.9427	12.313264	0.000892	8.918552	1.510844	-0.000179
1204	1.1970e+02	-3.9629	12.236558	0.000385	3.851193	0.652410	-0.000077
1205	1.1980e+02	-3.9833	12.103333	0.000669	6.688914	1.133133	-0.000134
1206	1.1990e+02	-4.0030	11.929736	0.000872	8.715858	1.476506	-0.000174
1207	1.2000e+02	-4.0231	11.796511	0.000669	6.688914	1.133133	-0.000134
1208	1.2010e+02	-4.0437	11.655211	0.000709	7.094303	1.201807	-0.000142
1209	1.2020e+02	-4.0633	11.558320	0.000486	4.864665	0.824097	-0.000097
1210	1.2030e+02	-4.0833	11.437206	0.000608	6.080831	1.030121	-0.000122
1211	1.2039e+02	-4.1029	11.291869	0.000730	7.296997	1.236145	-0.000146
1212	1.2049e+02	-4.1222	11.162680	0.000649	6.486220	1.098795	-0.000130
1213	1.2059e+02	-4.1426	11.005232	0.000791	7.905080	1.339157	-0.000158
1214	1.2069e+02	-4.1632	10.867969	0.000689	6.891609	1.167470	-0.000138
1215	1.2079e+02	-4.1820	10.726670	0.000709	7.094303	1.201807	-0.000142
1216	1.2089e+02	-4.2023	10.609593	0.000588	5.878137	0.995783	-0.000118
1217	1.2099e+02	-4.2224	10.435996	0.000872	8.715858	1.476506	-0.000174
1218	1.2109e+02	-4.2422	10.310845	0.000628	6.283525	1.064458	-0.000126
1219	1.2119e+02	-4.2621	10.197805	0.000568	5.675442	0.961446	-0.000114
1220	1.2129e+02	-4.2828	10.044394	0.000770	7.702386	1.304820	-0.000154
1221	1.2139e+02	-4.3011	9.911168	0.000669	6.688914	1.133133	-0.000134
1222	1.2149e+02	-4.3216	9.725460	0.000932	9.323941	1.579518	-0.000187
1223	1.2159e+02	-4.3427	9.580123	0.000730	7.296997	1.236145	-0.000146
1224	1.2169e+02	-4.3620	9.454972	0.000628	6.283525	1.064458	-0.000126
1225	1.2179e+02	-4.3819	9.370192	0.000426	4.256582	0.721084	-0.000085
1226	1.2189e+02	-4.4020	9.156224	0.001074	10.742802	1.819880	-0.000215
1227	1.2199e+02	-4.4223	9.043184	0.000568	5.675442	0.961446	-0.000114
1228	1.2209e+02	-4.4410	8.889773	0.000770	7.702386	1.304820	-0.000154
1229	1.2219e+02	-4.4609	8.752510	0.000689	6.891609	1.167470	-0.000138
1230	1.2229e+02	-4.4823	8.639470	0.000568	5.675442	0.961446	-0.000114
1231	1.2239e+02	-4.5015	8.469911	0.000851	8.513164	1.442169	-0.000170
1232	1.2248e+02	-4.5218	8.368982	0.000507	5.067359	0.858434	-0.000101
1233	1.2258e+02	-4.5414	8.219608	0.000750	7.499692	1.270482	-0.000150
1234	1.2268e+02	-4.5611	8.058123	0.000811	8.107775	1.373494	-0.000162
1235	1.2278e+02	-4.5822	7.928935	0.000649	6.486220	1.098795	-0.000130
1236	1.2288e+02	-4.6004	7.811858	0.000588	5.878137	0.995783	-0.000118
1237	1.2298e+02	-4.6214	7.654409	0.000791	7.905080	1.339157	-0.000158
1238	1.2308e+02	-4.6414	7.509072	0.000730	7.296997	1.236145	-0.000146
1239	1.2318e+02	-4.6609	7.404107	0.000527	5.270054	0.892771	-0.000105
1240	1.2328e+02	-4.6809	7.210324	0.000973	9.729330	1.648193	-0.000195
1241	1.2338e+02	-4.6997	7.052876	0.000791	7.905080	1.339157	-0.000158
1242	1.2348e+02	-4.7209	6.943873	0.000547	5.472748	0.927109	-0.000110
1243	1.2358e+02	-4.7409	6.818722	0.000628	6.283525	1.064458	-0.000126
1244	1.2368e+02	-4.7610	6.649163	0.000851	8.513164	1.442169	-0.000170
1245	1.2378e+02	-4.7794	6.507863	0.000709	7.094303	1.201807	-0.000142
1246	1.2388e+02	-4.8009	6.394823	0.000568	5.675442	0.961446	-0.000114
1247	1.2398e+02	-4.8201	6.233338	0.000811	8.107775	1.373494	-0.000162
1248	1.2408e+02	-4.8401	6.128372	0.000527	5.270054	0.892771	-0.000105
1249	1.2418e+02	-4.8608	5.954775	0.000872	8.715858	1.476506	-0.000174
1250	1.2428e+02	-4.8798	5.825587	0.000649	6.486220	1.098795	-0.000130
1251	1.2438e+02	-4.8997	5.684287	0.000709	7.094303	1.201807	-0.000142
1252	1.2447e+02	-4.9197	5.530876	0.000770	7.702386	1.304820	-0.000154
1253	1.2457e+02	-4.9396	5.401688	0.000649	6.486220	1.098795	-0.000130
1254	1.2467e+02	-4.9600	5.288648	0.000568	5.675442	0.961446	-0.000114
1255	1.2477e+02	-4.9792	5.115051	0.000872	8.715858	1.476506	-0.000174
1256	1.2487e+02	-4.9992	4.981826	0.000669	6.688914	1.133133	-0.000134
1257	1.2497e+02	-5.0200	4.832451	0.000750	7.499692	1.270482	-0.000150
1258	1.2507e+02	-5.0397	4.703263	0.000649	6.486220	1.098795	-0.000130
1259	1.2517e+02	-5.0588	4.561963	0.000709	7.094303	1.201807	-0.000142
1260	1.2527e+02	-5.0793	4.428738	0.000669	6.688914	1.133133	-0.000134
1261	1.2537e+02	-5.0984	4.283401	0.000730	7.296997	1.236145	-0.000146
1262	1.2547e+02	-5.1199	4.109804	0.000872	8.715858	1.476506	-0.000174
1263	1.2557e+02	-5.1387	3.984653	0.000628	6.283525	1.064458	-0.000126
1264	1.2567e+02	-5.1591	3.843353	0.000709	7.094303	1.201807	-0.000142
1265	1.2577e+02	-5.1791	3.746462	0.000486	4.864665	0.824097	-0.000097
1266	1.2587e+02	-5.1991	3.532494	0.001074	10.742802	1.819880	-0.000215
1267	1.2597e+02	-5.2184	3.415417	0.000588	5.878137	0.995783	-0.000118
1268	1.2607e+02	-5.2402	3.266043	0.000750	7.499692	1.270482	-0.000150
1269	1.2617e+02	-5.2592	3.096483	0.000851	8.513164	1.442169	-0.000170
1270	1.2627e+02	-5.2782	2.959220	0.000689	6.891609	1.167470	-0.000138
1271	1.2636e+02	-5.2981	2.830032	0.000649	6.486220	1.098795	-0.000130
1272	1.2646e+02	-5.3177	2.680658	0.000750	7.499692	1.270482	-0.000150
1273	1.2656e+02	-5.3369	2.551470	0.000649	6.486220	1.098795	-0.000130
1274	1.2666e+02	-5.3576	2.398059	0.000770	7.702386	1.304820	-0.000154
1275	1.2676e+02	-5.3769	2.248685	0.000750	7.499692	1.270482	-0.000150
1276	1.2686e+02	-5.3976	2.107385	0.000709	7.094303	1.201807	-0.000142
1277	1.2696e+02	-5.4170	1.945899	0.000811	8.107775	1.373494	-0.000162
1278	1.2706e+02	-5.4373	1.812674	0.000669	6.688914	1.133133	-0.000134
1279	1.2716e+02	-5.4570	1.663300	0.000750	7.499692	1.270482	-0.000150
1280	1.2726e+02	-5.4782	1.469517	0.000973	9.729330	1.648193	-0.000195
1281	1.2736e+02	-5.4969	1.364552	0.000527	5.270054	0.892771	-0.000105
1282	1.2746e+02	-5.5180	1.190955	0.000872	8.715858	1.476506	-0.000174
1283	1.2756e+02	-5.5374	1.045618	0.000730	7.296997	1.236145	-0.000146
1284	1.2766e+02	-5.5571	0.872021	0.000872	8.715858	1.476506	-0.000174
1285	1.2776e+02	-5.5779	0.767056	0.000527	5.270054	0.892771	-0.000105
1286	1.2786e+02	-5.5972	0.597496	0.000851	8.513164	1.442169	-0.000170
1287	1.2796e+02	-5.6180	0.444085	0.000770	7.702386	1.304820	-0.000154
1288	1.2806e+02	-5.6375	0.310859	0.000669	6.688914	1.133133	-0.000134
1289	1.2816e+02	-5.6572	0.129188	0.000912	9.121247	1.545181	-0.000183
1290	1.2826e+02	-5.6772	-0.004037	0.000669	6.688914	1.133133	-0.000134
1291	1.2835e+02	-5.6967	-0.161485	0.000791	7.905080	1.339157	-0.000158
1292	1.2845e+02	-5.7166	-0.347194	0.000932	9.323941	1.579518	-0.000187
1293	1.2855e+02	-5.7359	-0.516753	0.000851	8.513164	1.442169	-0.000170
1294	1.2865e+02	-5.7562	-0.662090	0.000730	7.296997	1.236145	-0.000146
1295	1.2875e+02	-5.7766	-0.787241	0.000628	6.283525	1.064458	-0.000126
1296	1.2885e+02	-5.7968	-0.972950	0.000932	9.323941	1.579518	-0.000187
1297	1.2895e+02	-5.8160	-1.118287	0.000730	7.296997	1.236145	-0.000146
1298	1.2905e+02	-5.8369	-1.271698	0.000770	7.702386	1.304820	-0.000154
1299	1.2915e+02	-5.8565	-1.461443	0.000953	9.526635	1.613856	-0.000191
1300	1.2925e+02	-5.8769	-1.631003	0.000851	8.513164	1.442169	-0.000170
1301	1.2935e+02	-5.8959	-1.764228	0.000669	6.688914	1.133133	-0.000134
1302	1.2945e+02	-5.9163	-1.933788	0.000851	8.513164	1.442169	-0.000170
1303	1.2955e+02	-5.9354	-2.091236	0.000791	7.905080	1.339157	-0.000158
1304	1.2965e+02	-5.9562	-2.248685	0.000791	7.905080	1.339157	-0.000158
1305	1.2975e+02	-5.9755	-2.418244	0.000851	8.513164	1.442169	-0.000170
1306	1.2985e+02	-5.9956	-2.575693	0.000791	7.905080	1.339157	-0.000158
1307	1.2995e+02	-6.0153	-2.708918	0.000669	6.688914	1.133133	-0.000134
1308	1.3005e+02	-6.0361	-2.922886	0.001074	10.742802	1.819880	-0.000215
1309	1.3015e+02	-6.0562	-3.080335	0.000791	7.905080	1.339157	-0.000158
1310	1.3025e+02	-6.0756	-3.270080	0.000953	9.526635	1.613856	-0.000191
1311	1.3034e+02	-6.0962	-3.399268	0.000649	6.486220	1.098795	-0.000130
1312	1.3044e+02	-6.1145	-3.613236	0.001074	10.742802	1.819880	-0.000215
1313	1.3054e+02	-6.1353	-3.807019	0.000973	9.729330	1.648193	-0.000195
1314	1.3064e+02	-6.1557	-3.899873	0.000466	4.661970	0.789759	-0.000093
1315	1.3074e+02	-6.1754	-4.057321	0.000791	7.905080	1.339157	-0.000158
1316	1.3084e+02	-6.1954	-4.279364	0.001115	11.148190	1.888555	-0.000223
1317	1.3094e+02	-6.2184	-4.444886	0.000831	8.310469	1.407832	-0.000166
1318	1.3104e+02	-6.2352	-4.634632	0.000953	9.526635	1.613856	-0.000191
1319	1.3114e+02	-6.2552	-4.779969	0.000730	7.296997	1.236145	-0.000146
1320	1.3124e+02	-6.2747	-4.973751	0.000973	9.729330	1.648193	-0.000195
1321	1.3134e+02	-6.2947	-5.159459	0.000932	9.323941	1.579518	-0.000187
1322	1.3144e+02	-6.3141	-5.349205	0.000953	9.526635	1.613856	-0.000191
1323	1.3154e+02	-6.3342	-5.502616	0.000770	7.702386	1.304820	-0.000154
1324	1.3164e+02	-6.3544	-5.704473	0.001013	10.134718	1.716868	-0.000203
1325	1.3174e+02	-6.3733	-5.886144	0.000912	9.121247	1.545181	-0.000183
1326	1.3184e+02	-6.3940	-6.083964	0.000993	9.932024	1.682530	-0.000199
1327	1.3194e+02	-6.4142	-6.257560	0.000872	8.715858	1.476506	-0.000174
1328	1.3204e+02	-6.4343	-6.487677	0.001155	11.553579	1.957229	-0.000231
1329	1.3214e+02	-6.4532	-6.624940	0.000689	6.891609	1.167470	-0.000138
1330	1.3224e+02	-6.4743	-6.842945	0.001095	10.945496	1.854217	-0.000219
1331	1.3234e+02	-6.4937	-7.036728	0.000973	9.729330	1.648193	-0.000195
1332	1.3243e+02	-6.5158	-7.234547	0.000993	9.932024	1.682530	-0.000199
1333	1.3253e+02	-6.5332	-7.428330	0.000973	9.729330	1.648193	-0.000195
1334	1.3263e+02	-6.5536	-7.614038	0.000932	9.323941	1.579518	-0.000187
1335	1.3273e+02	-6.5744	-7.811858	0.000993	9.932024	1.682530	-0.000199
1336	1.3283e+02	-6.5924	-8.021789	0.001054	10.540107	1.785542	-0.000211
1337	1.3293e+02	-6.6125	-8.223645	0.001013	10.134718	1.716868	-0.000203
1338	1.3303e+02	-6.6333	-8.413391	0.000953	9.526635	1.613856	-0.000191
1339	1.3313e+02	-6.6531	-8.627359	0.001074	10.742802	1.819880	-0.000215
1340	1.3323e+02	-6.6743	-8.845364	0.001095	10.945496	1.854217	-0.000219
1341	1.3333e+02	-6.6933	-9.031073	0.000932	9.323941	1.579518	-0.000187
1342	1.3343e+02	-6.7133	-9.257152	0.001135	11.350885	1.922892	-0.000227
1343	1.3353e+02	-6.7329	-9.495343	0.001196	11.958968	2.025904	-0.000239
1344	1.3363e+02	-6.7520	-9.672977	0.000892	8.918552	1.510844	-0.000179
1345	1.3373e+02	-6.7729	-9.866760	0.000973	9.729330	1.648193	-0.000195
1346	1.3383e+02	-6.7928	-10.121099	0.001277	12.769745	2.163253	-0.000256
1347	1.3393e+02	-6.8127	-10.335067	0.001074	10.742802	1.819880	-0.000215
1348	1.3403e+02	-6.8329	-10.557110	0.001115	11.148190	1.888555	-0.000223
1349	1.3413e+02	-6.8523	-10.730707	0.000872	8.715858	1.476506	-0.000174
1350	1.3423e+02	-6.8726	-10.968898	0.001196	11.958968	2.025904	-0.000239
1351	1.3432e+02	-6.8927	-11.203052	0.001176	11.756273	1.991567	-0.000235
1352	1.3442e+02	-6.9119	-11.404908	0.001013	10.134718	1.716868	-0.000203
1353	1.3452e+02	-6.9315	-11.655211	0.001257	12.567051	2.128916	-0.000252
1354	1.3462e+02	-6.9526	-11.905513	0.001257	12.567051	2.128916	-0.000252
1355	1.3472e+02	-6.9715	-12.091222	0.000932	9.323941	1.579518	-0.000187
1356	1.3482e+02	-6.9918	-12.337487	0.001236	12.364357	2.094579	-0.000248
1357	1.3492e+02	-7.0111	-12.567604	0.001155	11.553579	1.957229	-0.000231
1358	1.3502e+02	-7.0316	-12.801757	0.001176	11.756273	1.991567	-0.000235
1359	1.3512e+02	-7.0520	-13.039948	0.001196	11.958968	2.025904	-0.000239
1360	1.3522e+02	-7.0718	-13.282177	0.001216	12.161662	2.060241	-0.000243
1361	1.3532e+02	-7.0908	-13.504219	0.001115	11.148190	1.888555	-0.000223
1362	1.3542e+02	-7.1118	-13.738373	0.001176	11.756273	1.991567	-0.000235
1363	1.3552e+02	-7.1320	-13.972527	0.001176	11.756273	1.991567	-0.000235
1364	1.3562e+02	-7.1509	-14.271275	0.001500	14.999383	2.540964	-0.000300
1365	1.3572e+02	-7.1700	-14.481206	0.001054	10.540107	1.785542	-0.000211
1366	1.3582e+02	-7.1919	-14.751694	0.001358	13.580523	2.300603	-0.000272
1367	1.3592e+02	-7.2110	-15.001996	0.001257	12.567051	2.128916	-0.000252
1368	1.3602e+02	-7.2311	-15.228076	0.001135	11.350885	1.922892	-0.000227
1369	1.3612e+02	-7.2516	-15.498564	0.001358	13.580523	2.300603	-0.000272
1370	1.3622e+02	-7.2710	-15.740792	0.001216	12.161662	2.060241	-0.000243
1371	1.3631e+02	-7.2911	-15.999169	0.001297	12.972440	2.197591	-0.000260
1372	1.3641e+02	-7.3116	-16.245434	0.001236	12.364357	2.094579	-0.000248
1373	1.3651e+02	-7.3312	-16.540145	0.001480	14.796689	2.506627	-0.000296
1374	1.3661e+02	-7.3508	-16.806596	0.001338	13.377828	2.266265	-0.000268
1375	1.3671e+02	-7.3700	-17.032676	0.001135	11.350885	1.922892	-0.000227
1376	1.3681e+02	-7.3901	-17.299127	0.001338	13.377828	2.266265	-0.000268
1377	1.3691e+02	-7.4101	-17.561540	0.001318	13.175134	2.231928	-0.000264
1378	1.3701e+02	-7.4304	-17.848177	0.001439	14.391300	2.437952	-0.000288
1379	1.3711e+02	-7.4503	-18.122702	0.001378	13.783217	2.334940	-0.000276
1380	1.3721e+02	-7.4696	-18.364930	0.001216	12.161662	2.060241	-0.000243
1381	1.3731e+02	-7.4903	-18.659641	0.001480	14.796689	2.506627	-0.000296
1382	1.3741e+02	-7.5098	-18.958389	0.001500	14.999383	2.540964	-0.000300
1383	1.3751e+02	-7.5302	-19.216766	0.001297	12.972440	2.197591	-0.000260
1384	1.3761e+02	-7.5486	-19.515514	0.001500	14.999383	2.540964	-0.000300
1385	1.3771e+02	-7.5694	-19.822336	0.001540	15.404772	2.609639	-0.000308
1386	1.3781e+02	-7.5900	-20.145307	0.001622	16.215550	2.746988	-0.000325
1387	1.3791e+02	-7.6089	-20.415795	0.001358	13.580523	2.300603	-0.000272
1388	1.3801e+02	-7.6285	-20.706469	0.001459	14.593995	2.472290	-0.000292
1389	1.3811e+02	-7.6492	-20.993106	0.001439	14.391300	2.437952	-0.000288
1390	1.3821e+02	-7.6695	-21.287817	0.001480	14.796689	2.506627	-0.000296
1391	1.3831e+02	-7.6884	-21.566379	0.001399	13.985911	2.369278	-0.000280
1392	1.3840e+02	-7.7090	-21.873201	0.001540	15.404772	2.609639	-0.000308
1393	1.3850e+02	-7.7290	-22.192135	0.001601	16.012855	2.712651	-0.000321
1394	1.3860e+02	-7.7486	-22.494920	0.001520	15.202078	2.575302	-0.000304
1395	1.3870e+02	-7.7681	-22.834040	0.001703	17.026327	2.884338	-0.000341
1396	1.3880e+02	-7.7887	-23.128751	0.001480	14.796689	2.506627	-0.000296
1397	1.3890e+02	-7.8081	-23.427499	0.001500	14.999383	2.540964	-0.000300
1398	1.3900e+02	-7.8275	-23.730284	0.001520	15.202078	2.575302	-0.000304
1399	1.3910e+02	-7.8477	-24.097663	0.001845	18.445188	3.124699	-0.000369
1400	1.3920e+02	-7.8683	-24.432745	0.001682	16.823633	2.850001	-0.000337
1401	1.3930e+02	-7.8879	-24.755716	0.001622	16.215550	2.746988	-0.000325
1402	1.3940e+02	-7.9077	-25.066576	0.001561	15.607466	2.643976	-0.000312
1403	1.3950e+02	-7.9282	-25.377435	0.001561	15.607466	2.643976	-0.000312
1404	1.3960e+02	-7.9483	-25.765000	0.001946	19.458659	3.296386	-0.000390
1405	1.3970e+02	-7.9674	-26.039526	0.001378	13.783217	2.334940	-0.000276
1406	1.3980e+02	-7.9872	-26.362496	0.001622	16.215550	2.746988	-0.000325
1407	1.3990e+02	-8.0068	-26.733913	0.001865	18.647882	3.159037	-0.000373
1408	1.4000e+02	-8.0269	-27.068995	0.001682	16.823633	2.850001	-0.000337
1409	1.4010e+02	-8.0468	-27.404077	0.001682	16.823633	2.850001	-0.000337
1410	1.4020e+02	-8.0673	-27.731085	0.001642	16.418244	2.781326	-0.000329
1411	1.4029e+02	-8.0869	-28.098465	0.001845	18.445188	3.124699	-0.000369
1412	1.4039e+02	-8.1066	-28.413361	0.001581	15.810161	2.678314	-0.000316
1413	1.4049e+02	-8.1271	-28.813038	0.002007	20.066743	3.399398	-0.000402
1414	1.4059e+02	-8.1469	-29.156194	0.001723	17.229021	2.918675	-0.000345
1415	1.4069e+02	-8.1669	-29.515499	0.001804	18.039799	3.056025	-0.000361
1416	1.4079e+02	-8.1869	-29.907102	0.001966	19.661354	3.330724	-0.000394
1417	1.4089e+02	-8.2063	-30.230072	0.001622	16.215550	2.746988	-0.000325
1418	1.4099e+02	-8.2273	-30.641860	0.002067	20.674826	3.502410	-0.000414
1419	1.4109e+02	-8.2458	-30.997128	0.001784	17.837105	3.021687	-0.000357
1420	1.4119e+02	-8.2666	-31.356433	0.001804	18.039799	3.056025	-0.000361
1421	1.4129e+02	-8.2858	-31.735924	0.001905	19.053271	3.227711	-0.000381
1422	1.4139e+02	-8.3065	-32.127526	0.001966	19.661354	3.330724	-0.000394
1423	1.4149e+02	-8.3262	-32.478757	0.001763	17.634410	2.987350	-0.000353
1424	1.4159e+02	-8.3461	-32.898619	0.002108	21.080214	3.571085	-0.000422
1425	1.4169e+02	-8.3667	-33.261961	0.001824	18.242493	3.090362	-0.000365
1426	1.4179e+02	-8.3856	-33.669712	0.002047	20.472131	3.468073	-0.000410
1427	1.4189e+02	-8.4058	-34.029017	0.001804	18.039799	3.056025	-0.000361
1428	1.4199e+02	-8.4256	-34.440805	0.002067	20.674826	3.502410	-0.000414
1429	1.4209e+02	-8.4457	-34.832407	0.001966	19.661354	3.330724	-0.000394
1430	1.4219e+02	-8.4651	-35.280529	0.002250	22.499075	3.811446	-0.000450
1431	1.4228e+02	-8.4858	-35.643871	0.001824	18.242493	3.090362	-0.000365
1432	1.4238e+02	-8.5053	-36.043548	0.002007	20.066743	3.399398	-0.000402
1433	1.4248e+02	-8.5252	-36.467447	0.002128	21.282909	3.605422	-0.000426
1434	1.4258e+02	-8.5458	-36.867124	0.002007	20.066743	3.399398	-0.000402
1435	1.4268e+02	-8.5652	-37.303134	0.002189	21.890992	3.708434	-0.000438
1436	1.4278e+02	-8.5854	-37.710885	0.002047	20.472131	3.468073	-0.000410
1437	1.4288e+02	-8.6050	-38.126710	0.002088	20.877520	3.536748	-0.000418
1438	1.4298e+02	-8.6257	-38.590981	0.002331	23.309852	3.948796	-0.000467
1439	1.4308e+02	-8.6446	-38.998731	0.002047	20.472131	3.468073	-0.000410
1440	1.4318e+02	-8.6655	-39.463002	0.002331	23.309852	3.948796	-0.000467
1441	1.4328e+02	-8.6850	-39.854604	0.001966	19.661354	3.330724	-0.000394
1442	1.4338e+02	-8.7041	-40.355209	0.002513	25.134102	4.257832	-0.000503
1443	1.4348e+02	-8.7251	-40.771034	0.002088	20.877520	3.536748	-0.000418
1444	1.4358e+02	-8.7450	-41.247416	0.002392	23.917936	4.051808	-0.000479
1445	1.4368e+02	-8.7658	-41.727835	0.002412	24.120630	4.086145	-0.000483
1446	1.4378e+02	-8.7848	-42.107326	0.001905	19.053271	3.227711	-0.000381
1447	1.4388e+02	-8.8046	-42.607931	0.002513	25.134102	4.257832	-0.000503
1448	1.4398e+02	-8.8239	-43.080275	0.002372	23.715241	4.017471	-0.000475
1449	1.4408e+02	-8.8443	-43.512249	0.002169	21.688298	3.674097	-0.000434
1450	1.4418e+02	-8.8635	-44.012854	0.002513	25.134102	4.257832	-0.000503
1451	1.4428e+02	-8.8834	-44.501347	0.002453	24.526019	4.154820	-0.000491
1452	1.4437e+02	-8.9040	-44.965618	0.002331	23.309852	3.948796	-0.000467
1453	1.4447e+02	-8.9242	-45.429888	0.002331	23.309852	3.948796	-0.000467
1454	1.4457e+02	-8.9433	-45.958753	0.002655	26.552962	4.498194	-0.000532
1455	1.4467e+02	-8.9639	-46.447247	0.002453	24.526019	4.154820	-0.000491
1456	1.4477e+02	-8.9838	-46.935740	0.002453	24.526019	4.154820	-0.000491
1457	1.4487e+02	-9.0029	-47.387899	0.002270	22.701769	3.845784	-0.000454
1458	1.4497e+02	-9.0234	-47.977321	0.002959	29.593378	5.013254	-0.000592
1459	1.4507e+02	-9.0431	-48.445629	0.002351	23.512547	3.983133	-0.000471
1460	1.4517e+02	-9.0630	-48.950271	0.002534	25.336796	4.292169	-0.000507
1461	1.4527e+02	-9.0815	-49.475098	0.002635	26.350268	4.463856	-0.000527
1462	1.4537e+02	-9.1030	-49.971666	0.002493	24.931407	4.223495	-0.000499
1463	1.4547e+02	-9.1223	-50.496494	0.002635	26.350268	4.463856	-0.000527
1464	1.4557e+02	-9.1429	-51.033433	0.002696	26.958351	4.566868	-0.000540
1465	1.4567e+02	-9.1626	-51.626892	0.002980	29.796072	5.047591	-0.000596
1466	1.4577e+02	-9.1827	-52.103274	0.002392	23.917936	4.051808	-0.000479
1467	1.4587e+02	-9.2029	-52.640213	0.002696	26.958351	4.566868	-0.000540
1468	1.4597e+02	-9.2231	-53.245783	0.003040	30.404155	5.150603	-0.000609
1469	1.4607e+02	-9.2429	-53.766574	0.002615	26.147574	4.429519	-0.000523
1470	1.4617e+02	-9.2625	-54.331773	0.002838	28.377212	4.807230	-0.000568
1471	1.4626e+02	-9.2818	-54.884860	0.002777	27.769129	4.704218	-0.000556
1472	1.4636e+02	-9.3021	-55.450059	0.002838	28.377212	4.807230	-0.000568
1473	1.4646e+02	-9.3216	-56.011221	0.002817	28.174517	4.772892	-0.000564
1474	1.4656e+02	-9.3414	-56.612754	0.003020	30.201461	5.116266	-0.000605
1475	1.4666e+02	-9.3616	-57.173916	0.002817	28.174517	4.772892	-0.000564
1476	1.4676e+02	-9.3818	-57.731041	0.002797	27.971823	4.738555	-0.000560
1477	1.4686e+02	-9.4016	-58.300277	0.002858	28.579906	4.841567	-0.000572
1478	1.4696e+02	-9.4209	-58.913922	0.003081	30.809544	5.219278	-0.000617
1479	1.4706e+02	-9.4428	-59.511418	0.003000	29.998767	5.081929	-0.000600
1480	1.4716e+02	-9.4611	-60.141211	0.003162	31.620322	5.356627	-0.000633
1481	1.4726e+02	-9.4821	-60.730633	0.002959	29.593378	5.013254	-0.000592
1482	1.4736e+02	-9.5024	-61.336203	0.003040	30.404155	5.150603	-0.000609
1483	1.4746e+02	-9.5221	-61.970034	0.003182	31.823016	5.390965	-0.000637
1484	1.4756e+02	-9.5415	-62.603864	0.003182	31.823016	5.390965	-0.000637
1485	1.4766e+02	-9.5612	-63.261917	0.003304	33.039182	5.596989	-0.000661
1486	1.4776e+02	-9.5807	-63.871525	0.003061	30.606850	5.184941	-0.000613
1487	1.4786e+02	-9.6008	-64.513429	0.003223	32.228405	5.459640	-0.000645
1488	1.4796e+02	-9.6202	-65.175519	0.003324	33.241877	5.631326	-0.000665
1489	1.4806e+02	-9.6399	-65.773015	0.003000	29.998767	5.081929	-0.000600
1490	1.4816e+02	-9.6611	-66.487588	0.003588	35.876903	6.077712	-0.000718
1491	1.4825e+02	-9.6799	-67.141604	0.003284	32.836488	5.562652	-0.000657
1492	1.4835e+02	-9.7006	-67.831955	0.003466	34.660737	5.871688	-0.000694
1493	1.4845e+02	-9.7211	-68.506156	0.003385	33.849960	5.734338	-0.000678
1494	1.4855e+02	-9.7407	-69.184395	0.003405	34.052654	5.768676	-0.000682
1495	1.4865e+02	-9.7595	-69.862634	0.003405	34.052654	5.768676	-0.000682
1496	1.4875e+02	-9.7800	-70.577207	0.003588	35.876903	6.077712	-0.000718
1497	1.4885e+02	-9.8001	-71.307929	0.003669	36.687681	6.215061	-0.000734
1498	1.4895e+02	-9.8204	-71.978093	0.003365	33.647265	5.700001	-0.000674
1499	1.4905e+02	-9.8398	-72.664406	0.003446	34.458043	5.837350	-0.000690
1500	1.4915e+02	-9.8607	-73.403202	0.003709	37.093070	6.283736	-0.000743
1501	1.4925e+02	-9.8795	-74.170258	0.003851	38.511930	6.524098	-0.000771
1502	1.4935e+02	-9.8999	-74.909054	0.003709	37.093070	6.283736	-0.000743
1503	1.4945e+02	-9.9202	-75.603441	0.003486	34.863432	5.906025	-0.000698
1504	1.4955e+02	-9.9388	-76.370497	0.003851	38.511930	6.524098	-0.000771
1505	1.4965e+02	-9.9604	-77.125441	0.003790	37.903847	6.421086	-0.000759
1506	1.4975e+02	-9.9786	-77.884423	0.003811	38.106541	6.455423	-0.000763
1507	1.4985e+02	-9.9994	-78.675701	0.003973	39.728096	6.730122	-0.000795
1508	1.4995e+02	-9.9796	-79.232826	-0.002797	-27.971823	-4.738555	-0.000560
1509	1.5005e+02	-9.9593	-79.810136	-0.002899	-28.985295	-4.910242	-0.000580
1510	1.5015e+02	-9.9390	-80.326890	-0.002594	-25.944879	-4.395182	-0.000519
1511	1.5025e+02	-9.9205	-80.787123	-0.002311	-23.107158	-3.914459	-0.000463
1512	1.5034e+02	-9.9002	-81.299839	-0.002574	-25.742185	-4.360844	-0.000515
1513	1.5044e+02	-9.8799	-81.747962	-0.002250	-22.499075	-3.811446	-0.000450
1514	1.5054e+02	-9.8603	-82.183972	-0.002189	-21.890992	-3.708434	-0.000438
1515	1.5064e+02	-9.8398	-82.579612	-0.001986	-19.864048	-3.365061	-0.000398
1516	1.5074e+02	-9.8199	-83.007548	-0.002149	-21.485603	-3.639760	-0.000430
1517	1.5084e+02	-9.8000	-83.391076	-0.001926	-19.255965	-3.262049	-0.000385
1518	1.5094e+02	-9.7791	-83.762492	-0.001865	-18.647882	-3.159037	-0.000373
1519	1.5104e+02	-9.7607	-84.141983	-0.001905	-19.053271	-3.227711	-0.000381
1520	1.5114e+02	-9.7397	-84.468991	-0.001642	-16.418244	-2.781326	-0.000329
1521	1.5124e+02	-9.7211	-84.808110	-0.001703	-17.026327	-2.884338	-0.000341
1522	1.5134e+02	-9.7016	-85.175490	-0.001845	-18.445188	-3.124699	-0.000369
1523	1.5144e+02	-9.6799	-85.482312	-0.001540	-15.404772	-2.609639	-0.000308
1524	1.5154e+02	-9.6597	-85.744726	-0.001318	-13.175134	-2.231928	-0.000264
1525	1.5164e+02	-9.6407	-86.039437	-0.001480	-14.796689	-2.506627	-0.000296
1526	1.5174e+02	-9.6207	-86.346259	-0.001540	-15.404772	-2.609639	-0.000308
1527	1.5184e+02	-9.6008	-86.636933	-0.001459	-14.593995	-2.472290	-0.000292
1528	1.5194e+02	-9.5810	-86.887235	-0.001257	-12.567051	-2.128916	-0.000252
1529	1.5204e+02	-9.5615	-87.181946	-0.001480	-14.796689	-2.506627	-0.000296
1530	1.5214e+02	-9.5407	-87.367655	-0.000932	-9.323941	-1.579518	-0.000187
1531	1.5224e+02	-9.5210	-87.617957	-0.001257	-12.567051	-2.128916	-0.000252
1532	1.5233e+02	-9.5014	-87.844037	-0.001135	-11.350885	-1.922892	-0.000227
1533	1.5243e+02	-9.4812	-88.078190	-0.001176	-11.756273	-1.991567	-0.000235
1534	1.5253e+02	-9.4611	-88.288121	-0.001054	-10.540107	-1.785542	-0.000211
1535	1.5263e+02	-9.4413	-88.502090	-0.001074	-10.742802	-1.819880	-0.000215
1536	1.5273e+02	-9.4211	-88.752392	-0.001257	-12.567051	-2.128916	-0.000252
1537	1.5283e+02	-9.4013	-88.873506	-0.000608	-6.080831	-1.030121	-0.000122
1538	1.5293e+02	-9.3823	-89.123809	-0.001257	-12.567051	-2.128916	-0.000252
1539	1.5303e+02	-9.3614	-89.257034	-0.000669	-6.688914	-1.133133	-0.000134
1540	1.5313e+02	-9.3417	-89.466965	-0.001054	-10.540107	-1.785542	-0.000211
1541	1.5323e+02	-9.3220	-89.652673	-0.000932	-9.323941	-1.579518	-0.000187
1542	1.5333e+02	-9.3016	-89.806084	-0.000770	-7.702386	-1.304820	-0.000154
1543	1.5343e+02	-9.2821	-89.955459	-0.000750	-7.499692	-1.270482	-0.000150
1544	1.5353e+02	-9.2622	-90.088684	-0.000669	-6.688914	-1.133133	-0.000134
1545	1.5363e+02	-9.2419	-90.242095	-0.000770	-7.702386	-1.304820	-0.000154
1546	1.5373e+02	-9.2221	-90.395506	-0.000770	-7.702386	-1.304820	-0.000154
1547	1.5383e+02	-9.2020	-90.544880	-0.000750	-7.499692	-1.270482	-0.000150
1548	1.5393e+02	-9.1823	-90.641772	-0.000486	-4.864665	-0.824097	-0.000097
1549	1.5403e+02	-9.1624	-90.754811	-0.000568	-5.675442	-0.961446	-0.000114
1550	1.5413e+02	-9.1425	-90.904185	-0.000750	-7.499692	-1.270482	-0.000150
1551	1.5422e+02	-9.1230	-91.041448	-0.000689	-6.891609	-1.167470	-0.000138
1552	1.5432e+02	-9.1040	-91.122191	-0.000405	-4.053887	-0.686747	-0.000081
1553	1.5442e+02	-9.0820	-91.247342	-0.000628	-6.283525	-1.064458	-0.000126
1554	1.5452e+02	-9.0625	-91.372493	-0.000628	-6.283525	-1.064458	-0.000126
1555	1.5462e+02	-9.0432	-91.433050	-0.000304	-3.040416	-0.515060	-0.000061
1556	1.5472e+02	-9.0234	-91.558201	-0.000628	-6.283525	-1.064458	-0.000126
1557	1.5482e+02	-9.0038	-91.638944	-0.000405	-4.053887	-0.686747	-0.000081
1558	1.5492e+02	-8.9841	-91.739873	-0.000507	-5.067359	-0.858434	-0.000101
1559	1.5502e+02	-8.9632	-91.840801	-0.000507	-5.067359	-0.858434	-0.000101
1560	1.5512e+02	-8.9433	-91.865024	-0.000122	-1.216166	-0.206024	-0.000024
1561	1.5522e+02	-8.9230	-91.986138	-0.000608	-6.080831	-1.030121	-0.000122
1562	1.5532e+02	-8.9040	-92.062843	-0.000385	-3.851193	-0.652410	-0.000077
1563	1.5542e+02	-8.8831	-92.151660	-0.000446	-4.459276	-0.755422	-0.000089
1564	1.5552e+02	-8.8643	-92.208180	-0.000284	-2.837721	-0.480723	-0.000057
1565	1.5562e+02	-8.8435	-92.260663	-0.000264	-2.635027	-0.446386	-0.000053
1566	1.5572e+02	-8.8235	-92.305072	-0.000223	-2.229638	-0.377711	-0.000045
1567	1.5582e+02	-8.8046	-92.365629	-0.000304	-3.040416	-0.515060	-0.000061
1568	1.5592e+02	-8.7842	-92.410037	-0.000223	-2.229638	-0.377711	-0.000045
1569	1.5602e+02	-8.7637	-92.486743	-0.000385	-3.851193	-0.652410	-0.000077
1570	1.5612e+02	-8.7436	-92.519040	-0.000162	-1.621555	-0.274699	-0.000032
1571	1.5622e+02	-8.7238	-92.575560	-0.000284	-2.837721	-0.480723	-0.000057
1572	1.5631e+02	-8.7042	-92.611894	-0.000182	-1.824249	-0.309036	-0.000037
1573	1.5641e+02	-8.6853	-92.619968	-0.000041	-0.405389	-0.068675	-0.000008
1574	1.5651e+02	-8.6642	-92.660339	-0.000203	-2.026944	-0.343374	-0.000041
1575	1.5661e+02	-8.6450	-92.672451	-0.000061	-0.608083	-0.103012	-0.000012
1576	1.5671e+02	-8.6243	-92.724934	-0.000264	-2.635027	-0.446386	-0.000053
1577	1.5681e+02	-8.6040	-92.777416	-0.000264	-2.635027	-0.446386	-0.000053
1578	1.5691e+02	-8.5851	-92.773379	0.000020	0.202694	0.034337	0.000004
1579	1.5701e+02	-8.5648	-92.813751	-0.000203	-2.026944	-0.343374	-0.000041
1580	1.5711e+02	-8.5458	-92.777416	0.000182	1.824249	0.309036	0.000037
1581	1.5721e+02	-8.5249	-92.846048	-0.000345	-3.445804	-0.583735	-0.000069
1582	1.5731e+02	-8.5056	-92.809713	0.000182	1.824249	0.309036	0.000037
1583	1.5741e+02	-8.4848	-92.813751	-0.000020	-0.202694	-0.034337	-0.000004
1584	1.5751e+02	-8.4659	-92.825862	-0.000061	-0.608083	-0.103012	-0.000012
1585	1.5761e+02	-8.4454	-92.858159	-0.000162	-1.621555	-0.274699	-0.000032
1586	1.5771e+02	-8.4265	-92.870271	-0.000061	-0.608083	-0.103012	-0.000012
1587	1.5781e+02	-8.4055	-92.878345	-0.000041	-0.405389	-0.068675	-0.000008
1588	1.5791e+02	-8.3858	-92.874308	0.000020	0.202694	0.034337	0.000004
1589	1.5801e+02	-8.3660	-92.858159	0.000081	0.810777	0.137349	0.000016
1590	1.5811e+02	-8.3466	-92.850085	0.000041	0.405389	0.068675	0.000008
1591	1.5821e+02	-8.3256	-92.846048	0.000020	0.202694	0.034337	0.000004
1592	1.5830e+02	-8.3065	-92.833936	0.000061	0.608083	0.103012	0.000012
1593	1.5840e+02	-8.2867	-92.837973	-0.000020	-0.202694	-0.034337	-0.000004
1594	1.5850e+02	-8.2668	-92.777416	0.000304	3.040416	0.515060	0.000061
1595	1.5860e+02	-8.2472	-92.773379	0.000020	0.202694	0.034337	0.000004
1596	1.5870e+02	-8.2274	-92.781454	-0.000041	-0.405389	-0.068675	-0.000008
1597	1.5880e+02	-8.2060	-92.720896	0.000304	3.040416	0.515060	0.000061
1598	1.5890e+02	-8.1870	-92.672451	0.000243	2.432332	0.412048	0.000049
1599	1.5900e+02	-8.1668	-92.704748	-0.000162	-1.621555	-0.274699	-0.000032
1600	1.5910e+02	-8.1478	-92.700711	0.000020	0.202694	0.034337	0.000004
1601	1.5920e+02	-8.1271	-92.660339	0.000203	2.026944	0.343374	0.000041
1602	1.5930e+02	-8.1064	-92.636117	0.000122	1.216166	0.206024	0.000024
1603	1.5940e+02	-8.0862	-92.619968	0.000081	0.810777	0.137349	0.000016
1604	1.5950e+02	-8.0670	-92.583634	0.000182	1.824249	0.309036	0.000037
1605	1.5960e+02	-8.0481	-92.543263	0.000203	2.026944	0.343374	0.000041
1606	1.5970e+02	-8.0268	-92.535188	0.000041	0.405389	0.068675	0.000008
1607	1.5980e+02	-8.0081	-92.502891	0.000162	1.621555	0.274699	0.000032
1608	1.5990e+02	-7.9878	-92.434260	0.000345	3.445804	0.583735	0.000069
1609	1.6000e+02	-7.9675	-92.389851	0.000223	2.229638	0.377711	0.000045
1610	1.6010e+02	-7.9483	-92.357554	0.000162	1.621555	0.274699	0.000032
1611	1.6019e+02	-7.9285	-92.333331	0.000122	1.216166	0.206024	0.000024
1612	1.6029e+02	-7.9065	-92.296997	0.000182	1.824249	0.309036	0.000037
1613	1.6039e+02	-7.8880	-92.228366	0.000345	3.445804	0.583735	0.000069
1614	1.6049e+02	-7.8680	-92.236440	-0.000041	-0.405389	-0.068675	-0.000008
1615	1.6059e+02	-7.8479	-92.163772	0.000365	3.648499	0.618072	0.000073
1616	1.6069e+02	-7.8281	-92.083029	0.000405	4.053887	0.686747	0.000081
1617	1.6079e+02	-7.8079	-92.083029	0.000000	0.000000	0.000000	0.000000
1618	1.6089e+02	-7.7890	-92.022472	0.000304	3.040416	0.515060	0.000061
1619	1.6099e+02	-7.7689	-91.921544	0.000507	5.067359	0.858434	0.000101
1620	1.6109e+02	-7.7486	-91.917506	0.000020	0.202694	0.034337	0.000004
1621	1.6119e+02	-7.7293	-91.860987	0.000284	2.837721	0.480723	0.000057
1622	1.6129e+02	-7.7086	-91.852912	0.000041	0.405389	0.068675	0.000008
1623	1.6139e+02	-7.6876	-91.756021	0.000486	4.864665	0.824097	0.000097
1624	1.6149e+02	-7.6688	-91.719687	0.000182	1.824249	0.309036	0.000037
1625	1.6159e+02	-7.6482	-91.699501	0.000101	1.013472	0.171687	0.000020
1626	1.6169e+02	-7.6299	-91.594536	0.000527	5.270054	0.892771	0.000105
1627	1.6179e+02	-7.6083	-91.538016	0.000284	2.837721	0.480723	0.000057
1628	1.6189e+02	-7.5887	-91.505719	0.000162	1.621555	0.274699	0.000032
1629	1.6199e+02	-7.5696	-91.477459	0.000142	1.418861	0.240361	0.000028
1630	1.6209e+02	-7.5488	-91.392679	0.000426	4.256582	0.721084	0.000085
1631	1.6219e+02	-7.5307	-91.336159	0.000284	2.837721	0.480723	0.000057
1632	1.6228e+02	-7.5101	-91.295788	0.000203	2.026944	0.343374	0.000041
1633	1.6238e+02	-7.4908	-91.202933	0.000466	4.661970	0.789759	0.000093
1634	1.6248e+02	-7.4696	-91.158525	0.000223	2.229638	0.377711	0.000045
1635	1.6258e+02	-7.4504	-91.089894	0.000345	3.445804	0.583735	0.000069
1636	1.6268e+02	-7.4300	-91.061634	0.000142	1.418861	0.240361	0.000028
1637	1.6278e+02	-7.4093	-90.904185	0.000791	7.905080	1.339157	0.000158
1638	1.6288e+02	-7.3892	-90.884000	0.000101	1.013472	0.171687	0.000020
1639	1.6298e+02	-7.3703	-90.803257	0.000405	4.053887	0.686747	0.000081
1640	1.6308e+02	-7.3505	-90.779034	0.000122	1.216166	0.206024	0.000024
1641	1.6318e+02	-7.3311	-90.710403	0.000345	3.445804	0.583735	0.000069
1642	1.6328e+02	-7.3102	-90.609475	0.000507	5.067359	0.858434	0.000101
1643	1.6338e+02	-7.2900	-90.532769	0.000385	3.851193	0.652410	0.000077
1644	1.6348e+02	-7.2711	-90.520658	0.000061	0.608083	0.103012	0.000012
1645	1.6358e+02	-7.2507	-90.375321	0.000730	7.296997	1.236145	0.000146
1646	1.6368e+02	-7.2309	-90.318801	0.000284	2.837721	0.480723	0.000057
1647	1.6378e+02	-7.2114	-90.250169	0.000345	3.445804	0.583735	0.000069
1648	1.6388e+02	-7.1907	-90.221909	0.000142	1.418861	0.240361	0.000028
1649	1.6398e+02	-7.1709	-90.112907	0.000547	5.472748	0.927109	0.000110
1650	1.6408e+02	-7.1512	-90.007941	0.000527	5.270054	0.892771	0.000105
1651	1.6418e+02	-7.1313	-89.927199	0.000405	4.053887	0.686747	0.000081
1652	1.6427e+02	-7.1104	-89.854530	0.000365	3.648499	0.618072	0.000073
1653	1.6437e+02	-7.0914	-89.842419	0.000061	0.608083	0.103012	0.000012
1654	1.6447e+02	-7.0712	-89.737453	0.000527	5.270054	0.892771	0.000105
1655	1.6457e+02	-7.0514	-89.680933	0.000284	2.837721	0.480723	0.000057
1656	1.6467e+02	-7.0312	-89.584042	0.000486	4.864665	0.824097	0.000097
1657	1.6477e+02	-7.0119	-89.531559	0.000264	2.635027	0.446386	0.000053
1658	1.6487e+02	-6.9920	-89.402371	0.000649	6.486220	1.098795	0.000130
1659	1.6497e+02	-6.9711	-89.370074	0.000162	1.621555	0.274699	0.000032
1660	1.6507e+02	-6.9510	-89.277220	0.000466	4.661970	0.789759	0.000093
1661	1.6517e+02	-6.9327	-89.184366	0.000466	4.661970	0.789759	0.000093
1662	1.6527e+02	-6.9125	-89.152069	0.000162	1.621555	0.274699	0.000032
1663	1.6537e+02	-6.8927	-89.030954	0.000608	6.080831	1.030121	0.000122
1664	1.6547e+02	-6.8727	-88.978472	0.000264	2.635027	0.446386	0.000053
1665	1.6557e+02	-6.8518	-88.877543	0.000507	5.067359	0.858434	0.000101
1666	1.6567e+02	-6.8354	-88.849283	0.000142	1.418861	0.240361	0.000028
1667	1.6577e+02	-6.8124	-88.760466	0.000446	4.459276	0.755422	0.000089
1668	1.6587e+02	-6.7935	-88.623204	0.000689	6.891609	1.167470	0.000138
1669	1.6597e+02	-6.7728	-88.598981	0.000122	1.216166	0.206024	0.000024
1670	1.6607e+02	-6.7519	-88.510164	0.000446	4.459276	0.755422	0.000089
1671	1.6616e+02	-6.7336	-88.453644	0.000284	2.837721	0.480723	0.000057
1672	1.6626e+02	-6.7120	-88.348678	0.000527	5.270054	0.892771	0.000105
1673	1.6636e+02	-6.6922	-88.304270	0.000223	2.229638	0.377711	0.000045
1674	1.6646e+02	-6.6739	-88.259862	0.000223	2.229638	0.377711	0.000045
1675	1.6656e+02	-6.6534	-88.114525	0.000730	7.296997	1.236145	0.000146
1676	1.6666e+02	-6.6330	-88.029745	0.000426	4.256582	0.721084	0.000085
1677	1.6676e+02	-6.6132	-87.993411	0.000182	1.824249	0.309036	0.000037
1678	1.6686e+02	-6.5939	-87.876334	0.000588	5.878137	0.995783	0.000118
1679	1.6696e+02	-6.5726	-87.823851	0.000264	2.635027	0.446386	0.000053
1680	1.6706e+02	-6.5533	-87.678514	0.000730	7.296997	1.236145	0.000146
1681	1.6716e+02	-6.5337	-87.642180	0.000182	1.824249	0.309036	0.000037
1682	1.6726e+02	-6.5125	-87.545288	0.000486	4.864665	0.824097	0.000097
1683	1.6736e+02	-6.4938	-87.472620	0.000365	3.648499	0.618072	0.000073
1684	1.6746e+02	-6.4735	-87.399952	0.000365	3.648499	0.618072	0.000073
1685	1.6756e+02	-6.4539	-87.335357	0.000324	3.243110	0.549398	0.000065
1686	1.6766e+02	-6.4343	-87.222318	0.000568	5.675442	0.961446	0.000114
1687	1.6776e+02	-6.4139	-87.145612	0.000385	3.851193	0.652410	0.000077
1688	1.6786e+02	-6.3947	-87.064869	0.000405	4.053887	0.686747	0.000081
1689	1.6796e+02	-6.3736	-86.988164	0.000385	3.851193	0.652410	0.000077
1690	1.6806e+02	-6.3542	-86.907421	0.000405	4.053887	0.686747	0.000081
1691	1.6816e+02	-6.3341	-86.818604	0.000446	4.459276	0.755422	0.000089
1692	1.6825e+02	-6.3152	-86.749973	0.000345	3.445804	0.583735	0.000069
1693	1.6835e+02	-6.2939	-86.661156	0.000446	4.459276	0.755422	0.000089
1694	1.6845e+02	-6.2741	-86.588487	0.000365	3.648499	0.618072	0.000073
1695	1.6855e+02	-6.2549	-86.487559	0.000507	5.067359	0.858434	0.000101
1696	1.6865e+02	-6.2363	-86.394705	0.000466	4.661970	0.789759	0.000093
1697	1.6875e+02	-6.2149	-86.309925	0.000426	4.256582	0.721084	0.000085
1698	1.6885e+02	-6.1963	-86.213034	0.000486	4.864665	0.824097	0.000097
1699	1.6895e+02	-6.1752	-86.124217	0.000446	4.459276	0.755422	0.000089
1700	1.6905e+02	-6.1555	-86.035400	0.000446	4.459276	0.755422	0.000089
1701	1.6915e+02	-6.1364	-85.950620	0.000426	4.256582	0.721084	0.000085
1702	1.6925e+02	-6.1150	-85.865840	0.000426	4.256582	0.721084	0.000085
1703	1.6935e+02	-6.0957	-85.813357	0.000264	2.635027	0.446386	0.000053
1704	1.6945e+02	-6.0764	-85.708392	0.000527	5.270054	0.892771	0.000105
1705	1.6955e+02	-6.0551	-85.635723	0.000365	3.648499	0.618072	0.000073
1706	1.6965e+02	-6.0360	-85.542869	0.000466	4.661970	0.789759	0.000093
1707	1.6975e+02	-6.0156	-85.474238	0.000345	3.445804	0.583735	0.000069
1708	1.6985e+02	-5.9961	-85.357161	0.000588	5.878137	0.995783	0.000118
1709	1.6995e+02	-5.9750	-85.288530	0.000345	3.445804	0.583735	0.000069
1710	1.7005e+02	-5.9561	-85.199713	0.000446	4.459276	0.755422	0.000089
1711	1.7015e+02	-5.9349	-85.098784	0.000507	5.067359	0.858434	0.000101
1712	1.7024e+02	-5.9164	-85.005930	0.000466	4.661970	0.789759	0.000093
1713	1.7034e+02	-5.8962	-84.921150	0.000426	4.256582	0.721084	0.000085
1714	1.7044e+02	-5.8759	-84.820222	0.000507	5.067359	0.858434	0.000101
1715	1.7054e+02	-5.8559	-84.771776	0.000243	2.432332	0.412048	0.000049
1716	1.7064e+02	-5.8368	-84.642588	0.000649	6.486220	1.098795	0.000130
1717	1.7074e+02	-5.8157	-84.602217	0.000203	2.026944	0.343374	0.000041
1718	1.7084e+02	-5.7957	-84.473028	0.000649	6.486220	1.098795	0.000130
1719	1.7094e+02	-5.7764	-84.384211	0.000446	4.459276	0.755422	0.000089
1720	1.7104e+02	-5.7556	-84.291357	0.000466	4.661970	0.789759	0.000093
1721	1.7114e+02	-5.7372	-84.218689	0.000365	3.648499	0.618072	0.000073
1722	1.7124e+02	-5.7168	-84.125835	0.000466	4.661970	0.789759	0.000093
1723	1.7134e+02	-5.6982	-84.037018	0.000446	4.459276	0.755422	0.000089
1724	1.7144e+02	-5.6772	-83.936089	0.000507	5.067359	0.858434	0.000101
1725	1.7154e+02	-5.6567	-83.867458	0.000345	3.445804	0.583735	0.000069
1726	1.7164e+02	-5.6375	-83.762492	0.000527	5.270054	0.892771	0.000105
1727	1.7174e+02	-5.6182	-83.645415	0.000588	5.878137	0.995783	0.000118
1728	1.7184e+02	-5.5978	-83.584858	0.000304	3.040416	0.515060	0.000061
1729	1.7194e+02	-5.5780	-83.487967	0.000486	4.864665	0.824097	0.000097
1730	1.7204e+02	-5.5566	-83.443559	0.000223	2.229638	0.377711	0.000045
1731	1.7213e+02	-5.5377	-83.302259	0.000709	7.094303	1.201807	0.000142
1732	1.7223e+02	-5.5164	-83.213442	0.000446	4.459276	0.755422	0.000089
1733	1.7233e+02	-5.4974	-83.128662	0.000426	4.256582	0.721084	0.000085
1734	1.7243e+02	-5.4780	-83.039845	0.000446	4.459276	0.755422	0.000089
1735	1.7253e+02	-5.4575	-82.938917	0.000507	5.067359	0.858434	0.000101
1736	1.7263e+02	-5.4382	-82.821840	0.000588	5.878137	0.995783	0.000118
1737	1.7273e+02	-5.4174	-82.773394	0.000243	2.432332	0.412048	0.000049
1738	1.7283e+02	-5.3978	-82.688614	0.000426	4.256582	0.721084	0.000085
1739	1.7293e+02	-5.3781	-82.563463	0.000628	6.283525	1.064458	0.000126
1740	1.7303e+02	-5.3574	-82.490795	0.000365	3.648499	0.618072	0.000073
1741	1.7313e+02	-5.3381	-82.401978	0.000446	4.459276	0.755422	0.000089
1742	1.7323e+02	-5.3185	-82.272789	0.000649	6.486220	1.098795	0.000130
1743	1.7333e+02	-5.2988	-82.183972	0.000446	4.459276	0.755422	0.000089
1744	1.7343e+02	-5.2778	-82.087081	0.000486	4.864665	0.824097	0.000097
1745	1.7353e+02	-5.2587	-82.022487	0.000324	3.243110	0.549398	0.000065
1746	1.7363e+02	-5.2400	-81.905410	0.000588	5.878137	0.995783	0.000118
1747	1.7373e+02	-5.2190	-81.812556	0.000466	4.661970	0.789759	0.000093
1748	1.7383e+02	-5.1996	-81.735850	0.000385	3.851193	0.652410	0.000077
1749	1.7393e+02	-5.1781	-81.586476	0.000750	7.499692	1.270482	0.000150
1750	1.7403e+02	-5.1581	-81.481511	0.000527	5.270054	0.892771	0.000105
1751	1.7413e+02	-5.1385	-81.412879	0.000345	3.445804	0.583735	0.000069
1752	1.7422e+02	-5.1178	-81.324062	0.000446	4.459276	0.755422	0.000089
1753	1.7432e+02	-5.0984	-81.206985	0.000588	5.878137	0.995783	0.000118
1754	1.7442e+02	-5.0789	-81.085871	0.000608	6.080831	1.030121	0.000122
1755	1.7452e+02	-5.0594	-81.033389	0.000264	2.635027	0.446386	0.000053
1756	1.7462e+02	-5.0397	-80.896126	0.000689	6.891609	1.167470	0.000138
1757	1.7472e+02	-5.0197	-80.831532	0.000324	3.243110	0.549398	0.000065
1758	1.7482e+02	-4.9997	-80.702343	0.000649	6.486220	1.098795	0.000130
1759	1.7492e+02	-4.9797	-80.633712	0.000345	3.445804	0.583735	0.000069
1760	1.7502e+02	-4.9606	-80.536821	0.000486	4.864665	0.824097	0.000097
1761	1.7512e+02	-4.9405	-80.415707	0.000608	6.080831	1.030121	0.000122
1762	1.7522e+02	-4.9193	-80.310741	0.000527	5.270054	0.892771	0.000105
1763	1.7532e+02	-4.9007	-80.205776	0.000527	5.270054	0.892771	0.000105
1764	1.7542e+02	-4.8801	-80.112922	0.000466	4.661970	0.789759	0.000093
1765	1.7552e+02	-4.8590	-79.987770	0.000628	6.283525	1.064458	0.000126
1766	1.7562e+02	-4.8412	-79.878768	0.000547	5.472748	0.927109	0.000110
1767	1.7572e+02	-4.8208	-79.798025	0.000405	4.053887	0.686747	0.000081
1768	1.7582e+02	-4.7987	-79.668837	0.000649	6.486220	1.098795	0.000130
1769	1.7592e+02	-4.7803	-79.527537	0.000709	7.094303	1.201807	0.000142
1770	1.7602e+02	-4.7607	-79.462943	0.000324	3.243110	0.549398	0.000065
1771	1.7612e+02	-4.7404	-79.345866	0.000588	5.878137	0.995783	0.000118
1772	1.7621e+02	-4.7202	-79.277234	0.000345	3.445804	0.583735	0.000069
1773	1.7631e+02	-4.7000	-79.152083	0.000628	6.283525	1.064458	0.000126
1774	1.7641e+02	-4.6809	-79.047118	0.000527	5.270054	0.892771	0.000105
1775	1.7651e+02	-4.6611	-78.926004	0.000608	6.080831	1.030121	0.000122
1776	1.7661e+02	-4.6420	-78.829112	0.000486	4.864665	0.824097	0.000097
1777	1.7671e+02	-4.6217	-78.744333	0.000426	4.256582	0.721084	0.000085
1778	1.7681e+02	-4.6007	-78.594959	0.000750	7.499692	1.270482	0.000150
1779	1.7691e+02	-4.5811	-78.534402	0.000304	3.040416	0.515060	0.000061
1780	1.7701e+02	-4.5610	-78.421362	0.000568	5.675442	0.961446	0.000114
1781	1.7711e+02	-4.5409	-78.288136	0.000669	6.688914	1.133133	0.000134
1782	1.7721e+02	-4.5217	-78.183171	0.000527	5.270054	0.892771	0.000105
1783	1.7731e+02	-4.5009	-78.090317	0.000466	4.661970	0.789759	0.000093
1784	1.7741e+02	-4.4810	-77.961128	0.000649	6.486220	1.098795	0.000130
1785	1.7751e+02	-4.4614	-77.860200	0.000507	5.067359	0.858434	0.000101
1786	1.7761e+02	-4.4418	-77.743123	0.000588	5.878137	0.995783	0.000118
1787	1.7771e+02	-4.4216	-77.638157	0.000527	5.270054	0.892771	0.000105
1788	1.7781e+02	-4.4011	-77.521080	0.000588	5.878137	0.995783	0.000118
1789	1.7791e+02	-4.3819	-77.444375	0.000385	3.851193	0.652410	0.000077
1790	1.7801e+02	-4.3623	-77.323261	0.000608	6.080831	1.030121	0.000122
1791	1.7810e+02	-4.3427	-77.190035	0.000669	6.688914	1.133133	0.000134
1792	1.7820e+02	-4.3222	-77.117367	0.000365	3.648499	0.618072	0.000073
1793	1.7830e+02	-4.3016	-76.992216	0.000628	6.283525	1.064458	0.000126
1794	1.7840e+02	-4.2830	-76.887250	0.000527	5.270054	0.892771	0.000105
1795	1.7850e+02	-4.2627	-76.733839	0.000770	7.702386	1.304820	0.000154
1796	1.7860e+02	-4.2429	-76.661171	0.000365	3.648499	0.618072	0.000073
1797	1.7870e+02	-4.2227	-76.527945	0.000669	6.688914	1.133133	0.000134
1798	1.7880e+02	-4.2033	-76.459314	0.000345	3.445804	0.583735	0.000069
1799	1.7890e+02	-4.1826	-76.342237	0.000588	5.878137	0.995783	0.000118
1800	1.7900e+02	-4.1623	-76.233234	0.000547	5.472748	0.927109	0.000110
1801	1.7910e+02	-4.1425	-76.051563	0.000912	9.121247	1.545181	0.000183
1802	1.7920e+02	-4.1229	-75.978895	0.000365	3.648499	0.618072	0.000073
1803	1.7930e+02	-4.1029	-75.849706	0.000649	6.486220	1.098795	0.000130
1804	1.7940e+02	-4.0828	-75.756852	0.000466	4.661970	0.789759	0.000093
1805	1.7950e+02	-4.0637	-75.599404	0.000791	7.905080	1.339157	0.000158
1806	1.7960e+02	-4.0433	-75.518661	0.000405	4.053887	0.686747	0.000081
1807	1.7970e+02	-4.0228	-75.385436	0.000669	6.688914	1.133133	0.000134
1808	1.7980e+02	-4.0027	-75.272396	0.000568	5.675442	0.961446	0.000114
1809	1.7990e+02	-3.9837	-75.187616	0.000426	4.256582	0.721084	0.000085
1810	1.8000e+02	-3.9645	-75.042279	0.000730	7.296997	1.236145	0.000146
1811	1.8009e+02	-3.9435	-74.953462	0.000446	4.459276	0.755422	0.000089
1812	1.8019e+02	-3.9243	-74.804088	0.000750	7.499692	1.270482	0.000150
1813	1.8029e+02	-3.9043	-74.715271	0.000446	4.459276	0.755422	0.000089
1814	1.8039e+02	-3.8835	-74.549749	0.000831	8.310469	1.407832	0.000166
1815	1.8049e+02	-3.8634	-74.456894	0.000466	4.661970	0.789759	0.000093
1816	1.8059e+02	-3.8438	-74.368077	0.000446	4.459276	0.755422	0.000089
1817	1.8069e+02	-3.8249	-74.238889	0.000649	6.486220	1.098795	0.000130
1818	1.8079e+02	-3.8037	-74.137961	0.000507	5.067359	0.858434	0.000101
1819	1.8089e+02	-3.7843	-73.968401	0.000851	8.513164	1.442169	0.000170
1820	1.8099e+02	-3.7647	-73.879584	0.000446	4.459276	0.755422	0.000089
1821	1.8109e+02	-3.7442	-73.734247	0.000730	7.296997	1.236145	0.000146
1822	1.8119e+02	-3.7241	-73.637356	0.000486	4.864665	0.824097	0.000097
1823	1.8129e+02	-3.7048	-73.524316	0.000568	5.675442	0.961446	0.000114
1824	1.8139e+02	-3.6856	-73.407239	0.000588	5.878137	0.995783	0.000118
1825	1.8149e+02	-3.6654	-73.269977	0.000689	6.891609	1.167470	0.000138
1826	1.8159e+02	-3.6449	-73.136751	0.000669	6.688914	1.133133	0.000134
1827	1.8169e+02	-3.6248	-73.064083	0.000365	3.648499	0.618072	0.000073
1828	1.8179e+02	-3.6044	-72.926820	0.000689	6.891609	1.167470	0.000138
1829	1.8189e+02	-3.5851	-72.801669	0.000628	6.283525	1.064458	0.000126
1830	1.8199e+02	-3.5647	-72.688629	0.000568	5.675442	0.961446	0.000114
1831	1.8209e+02	-3.5452	-72.595775	0.000466	4.661970	0.789759	0.000093
1832	1.8218e+02	-3.5255	-72.478698	0.000588	5.878137	0.995783	0.000118
1833	1.8228e+02	-3.5059	-72.349510	0.000649	6.486220	1.098795	0.000130
1834	1.8238e+02	-3.4855	-72.244544	0.000527	5.270054	0.892771	0.000105
1835	1.8248e+02	-3.4665	-72.127467	0.000588	5.878137	0.995783	0.000118
1836	1.8258e+02	-3.4460	-71.994242	0.000669	6.688914	1.133133	0.000134
1837	1.8268e+02	-3.4258	-71.897350	0.000486	4.864665	0.824097	0.000097
1838	1.8278e+02	-3.4062	-71.788348	0.000547	5.472748	0.927109	0.000110
1839	1.8288e+02	-3.3856	-71.606677	0.000912	9.121247	1.545181	0.000183
1840	1.8298e+02	-3.3652	-71.485563	0.000608	6.080831	1.030121	0.000122
1841	1.8308e+02	-3.3465	-71.380597	0.000527	5.270054	0.892771	0.000105
1842	1.8318e+02	-3.3270	-71.316003	0.000324	3.243110	0.549398	0.000065
1843	1.8328e+02	-3.3060	-71.142406	0.000872	8.715858	1.476506	0.000174
1844	1.8338e+02	-3.2864	-71.073775	0.000345	3.445804	0.583735	0.000069
1845	1.8348e+02	-3.2657	-70.956698	0.000588	5.878137	0.995783	0.000118
1846	1.8358e+02	-3.2469	-70.835584	0.000608	6.080831	1.030121	0.000122
1847	1.8368e+02	-3.2278	-70.706395	0.000649	6.486220	1.098795	0.000130
1848	1.8378e+02	-3.2059	-70.609504	0.000486	4.864665	0.824097	0.000097
1849	1.8388e+02	-3.1860	-70.443981	0.000831	8.310469	1.407832	0.000166
1850	1.8398e+02	-3.1670	-70.339016	0.000527	5.270054	0.892771	0.000105
1851	1.8407e+02	-3.1469	-70.217902	0.000608	6.080831	1.030121	0.000122
1852	1.8417e+02	-3.1276	-70.129085	0.000446	4.459276	0.755422	0.000089
1853	1.8427e+02	-3.1065	-70.012008	0.000588	5.878137	0.995783	0.000118
1854	1.8437e+02	-3.0869	-69.894931	0.000588	5.878137	0.995783	0.000118
1855	1.8447e+02	-3.0670	-69.773817	0.000608	6.080831	1.030121	0.000122
1856	1.8457e+02	-3.0476	-69.624443	0.000750	7.499692	1.270482	0.000150
1857	1.8467e+02	-3.0261	-69.515440	0.000547	5.472748	0.927109	0.000110
1858	1.8477e+02	-3.0084	-69.426623	0.000446	4.459276	0.755422	0.000089
1859	1.8487e+02	-2.9871	-69.269175	0.000791	7.905080	1.339157	0.000158
1860	1.8497e+02	-2.9681	-69.172284	0.000486	4.864665	0.824097	0.000097
1861	1.8507e+02	-2.9475	-69.039058	0.000669	6.688914	1.133133	0.000134
1862	1.8517e+02	-2.9272	-68.946204	0.000466	4.661970	0.789759	0.000093
1863	1.8527e+02	-2.9078	-68.849313	0.000486	4.864665	0.824097	0.000097
1864	1.8537e+02	-2.8876	-68.691865	0.000791	7.905080	1.339157	0.000158
1865	1.8547e+02	-2.8675	-68.566713	0.000628	6.283525	1.064458	0.000126
1866	1.8557e+02	-2.8477	-68.465785	0.000507	5.067359	0.858434	0.000101
1867	1.8567e+02	-2.8288	-68.352745	0.000568	5.675442	0.961446	0.000114
1868	1.8577e+02	-2.8085	-68.158963	0.000973	9.729330	1.648193	0.000195
1869	1.8587e+02	-2.7875	-68.110517	0.000243	2.432332	0.412048	0.000049
1870	1.8597e+02	-2.7687	-67.973254	0.000689	6.891609	1.167470	0.000138
1871	1.8606e+02	-2.7484	-67.852140	0.000608	6.080831	1.030121	0.000122
1872	1.8616e+02	-2.7286	-67.722952	0.000649	6.486220	1.098795	0.000130
1873	1.8626e+02	-2.7084	-67.573578	0.000750	7.499692	1.270482	0.000150
1874	1.8636e+02	-2.6880	-67.468612	0.000527	5.270054	0.892771	0.000105
1875	1.8646e+02	-2.6690	-67.351536	0.000588	5.878137	0.995783	0.000118
1876	1.8656e+02	-2.6486	-67.214273	0.000689	6.891609	1.167470	0.000138
1877	1.8666e+02	-2.6289	-67.137567	0.000385	3.851193	0.652410	0.000077
1878	1.8676e+02	-2.6086	-67.004342	0.000669	6.688914	1.133133	0.000134
1879	1.8686e+02	-2.5883	-66.854968	0.000750	7.499692	1.270482	0.000150
1880	1.8696e+02	-2.5695	-66.737891	0.000588	5.878137	0.995783	0.000118
1881	1.8706e+02	-2.5491	-66.641000	0.000486	4.864665	0.824097	0.000097
1882	1.8716e+02	-2.5291	-66.499700	0.000709	7.094303	1.201807	0.000142
1883	1.8726e+02	-2.5092	-66.394734	0.000527	5.270054	0.892771	0.000105
1884	1.8736e+02	-2.4898	-66.257472	0.000689	6.891609	1.167470	0.000138
1885	1.8746e+02	-2.4699	-66.124246	0.000669	6.688914	1.133133	0.000134
1886	1.8756e+02	-2.4500	-65.991021	0.000669	6.688914	1.133133	0.000134
1887	1.8766e+02	-2.4304	-65.902204	0.000446	4.459276	0.755422	0.000089
1888	1.8776e+02	-2.4115	-65.752830	0.000750	7.499692	1.270482	0.000150
1889	1.8786e+02	-2.3896	-65.659976	0.000466	4.661970	0.789759	0.000093
1890	1.8796e+02	-2.3714	-65.518676	0.000709	7.094303	1.201807	0.000142
1891	1.8806e+02	-2.3509	-65.450045	0.000345	3.445804	0.583735	0.000069
1892	1.8815e+02	-2.3305	-65.268373	0.000912	9.121247	1.545181	0.000183
1893	1.8825e+02	-2.3104	-65.183594	0.000426	4.256582	0.721084	0.000085
1894	1.8835e+02	-2.2900	-65.094777	0.000446	4.459276	0.755422	0.000089
1895	1.8845e+02	-2.2705	-64.949440	0.000730	7.296997	1.236145	0.000146
1896	1.8855e+02	-2.2496	-64.808140	0.000709	7.094303	1.201807	0.000142
1897	1.8865e+02	-2.2297	-64.699137	0.000547	5.472748	0.927109	0.000110
1898	1.8875e+02	-2.2115	-64.557838	0.000709	7.094303	1.201807	0.000142
1899	1.8885e+02	-2.1906	-64.452872	0.000527	5.270054	0.892771	0.000105
1900	1.8895e+02	-2.1714	-64.339832	0.000568	5.675442	0.961446	0.000114
1901	1.8905e+02	-2.1500	-64.198533	0.000709	7.094303	1.201807	0.000142
1902	1.8915e+02	-2.1309	-64.097604	0.000507	5.067359	0.858434	0.000101
1903	1.8925e+02	-2.1112	-63.936119	0.000811	8.107775	1.373494	0.000162
1904	1.8935e+02	-2.0898	-63.839227	0.000486	4.864665	0.824097	0.000097
1905	1.8945e+02	-2.0712	-63.718113	0.000608	6.080831	1.030121	0.000122
1906	1.8955e+02	-2.0517	-63.584888	0.000669	6.688914	1.133133	0.000134
1907	1.8965e+02	-2.0317	-63.467811	0.000588	5.878137	0.995783	0.000118
1908	1.8975e+02	-2.0112	-63.354771	0.000568	5.675442	0.961446	0.000114
1909	1.8985e+02	-1.9916	-63.221546	0.000669	6.688914	1.133133	0.000134
1910	1.8995e+02	-1.9718	-63.088320	0.000669	6.688914	1.133133	0.000134
1911	1.9004e+02	-1.9514	-62.991429	0.000486	4.864665	0.824097	0.000097
1912	1.9014e+02	-1.9318	-62.842055	0.000750	7.499692	1.270482	0.000150
1913	1.9024e+02	-1.9126	-62.712867	0.000649	6.486220	1.098795	0.000130
1914	1.9034e+02	-1.8915	-62.607901	0.000527	5.270054	0.892771	0.000105
1915	1.9044e+02	-1.8726	-62.474676	0.000669	6.688914	1.133133	0.000134
1916	1.9054e+02	-1.8523	-62.325302	0.000750	7.499692	1.270482	0.000150
1917	1.9064e+02	-1.8315	-62.175928	0.000750	7.499692	1.270482	0.000150
1918	1.9074e+02	-1.8123	-62.087111	0.000446	4.459276	0.755422	0.000089
1919	1.9084e+02	-1.7924	-61.925625	0.000811	8.107775	1.373494	0.000162
1920	1.9094e+02	-1.7728	-61.820660	0.000527	5.270054	0.892771	0.000105
1921	1.9104e+02	-1.7514	-61.679360	0.000709	7.094303	1.201807	0.000142
1922	1.9114e+02	-1.7331	-61.554209	0.000628	6.283525	1.064458	0.000126
1923	1.9124e+02	-1.7128	-61.412909	0.000709	7.094303	1.201807	0.000142
1924	1.9134e+02	-1.6924	-61.291795	0.000608	6.080831	1.030121	0.000122
1925	1.9144e+02	-1.6725	-61.130309	0.000811	8.107775	1.373494	0.000162
1926	1.9154e+02	-1.6527	-61.057641	0.000365	3.648499	0.618072	0.000073
1927	1.9164e+02	-1.6327	-60.920378	0.000689	6.891609	1.167470	0.000138
1928	1.9174e+02	-1.6122	-60.779079	0.000709	7.094303	1.201807	0.000142
1929	1.9184e+02	-1.5917	-60.645853	0.000669	6.688914	1.133133	0.000134
1930	1.9194e+02	-1.5723	-60.496479	0.000750	7.499692	1.270482	0.000150
1931	1.9203e+02	-1.5527	-60.367291	0.000649	6.486220	1.098795	0.000130
1932	1.9213e+02	-1.5338	-60.246177	0.000608	6.080831	1.030121	0.000122
1933	1.9223e+02	-1.5126	-60.108914	0.000689	6.891609	1.167470	0.000138
1934	1.9233e+02	-1.4935	-59.971651	0.000689	6.891609	1.167470	0.000138
1935	1.9243e+02	-1.4730	-59.838426	0.000669	6.688914	1.133133	0.000134
1936	1.9253e+02	-1.4530	-59.721349	0.000588	5.878137	0.995783	0.000118
1937	1.9263e+02	-1.4331	-59.576012	0.000730	7.296997	1.236145	0.000146
1938	1.9273e+02	-1.4128	-59.438749	0.000689	6.891609	1.167470	0.000138
1939	1.9283e+02	-1.3928	-59.329747	0.000547	5.472748	0.927109	0.000110
1940	1.9293e+02	-1.3731	-59.204596	0.000628	6.283525	1.064458	0.000126
1941	1.9303e+02	-1.3536	-59.091556	0.000568	5.675442	0.961446	0.000114
1942	1.9313e+02	-1.3338	-58.930070	0.000811	8.107775	1.373494	0.000162
1943	1.9323e+02	-1.3140	-58.825105	0.000527	5.270054	0.892771	0.000105
1944	1.9333e+02	-1.2943	-58.647471	0.000892	8.918552	1.510844	0.000179
1945	1.9343e+02	-1.2740	-58.514245	0.000669	6.688914	1.133133	0.000134
1946	1.9353e+02	-1.2551	-58.397168	0.000588	5.878137	0.995783	0.000118
1947	1.9363e+02	-1.2347	-58.267980	0.000649	6.486220	1.098795	0.000130
1948	1.9373e+02	-1.2145	-58.098420	0.000851	8.513164	1.442169	0.000170
1949	1.9383e+02	-1.1942	-57.981343	0.000588	5.878137	0.995783	0.000118
1950	1.9393e+02	-1.1744	-57.868304	0.000568	5.675442	0.961446	0.000114
1951	1.9403e+02	-1.1546	-57.710855	0.000791	7.905080	1.339157	0.000158
1952	1.9412e+02	-1.1351	-57.589741	0.000608	6.080831	1.030121	0.000122
1953	1.9422e+02	-1.1148	-57.436330	0.000770	7.702386	1.304820	0.000154
1954	1.9432e+02	-1.0955	-57.323290	0.000568	5.675442	0.961446	0.000114
1955	1.9442e+02	-1.0742	-57.230436	0.000466	4.661970	0.789759	0.000093
1956	1.9452e+02	-1.0550	-57.052802	0.000892	8.918552	1.510844	0.000179
1957	1.9462e+02	-1.0356	-56.871131	0.000912	9.121247	1.545181	0.000183
1958	1.9472e+02	-1.0159	-56.782314	0.000446	4.459276	0.755422	0.000089
1959	1.9482e+02	-0.9952	-56.649089	0.000669	6.688914	1.133133	0.000134
1960	1.9492e+02	-0.9752	-56.503752	0.000730	7.296997	1.236145	0.000146
1961	1.9502e+02	-0.9555	-56.370526	0.000669	6.688914	1.133133	0.000134
1962	1.9512e+02	-0.9358	-56.233264	0.000689	6.891609	1.167470	0.000138
1963	1.9522e+02	-0.9155	-56.096001	0.000689	6.891609	1.167470	0.000138
1964	1.9532e+02	-0.8958	-55.962776	0.000669	6.688914	1.133133	0.000134
1965	1.9542e+02	-0.8758	-55.845699	0.000588	5.878137	0.995783	0.000118
1966	1.9552e+02	-0.8558	-55.700362	0.000730	7.296997	1.236145	0.000146
1967	1.9562e+02	-0.8356	-55.506579	0.000973	9.729330	1.648193	0.000195
1968	1.9572e+02	-0.8163	-55.393539	0.000568	5.675442	0.961446	0.000114
1969	1.9582e+02	-0.7951	-55.288574	0.000527	5.270054	0.892771	0.000105
1970	1.9592e+02	-0.7764	-55.131126	0.000791	7.905080	1.339157	0.000158
1971	1.9601e+02	-0.7565	-55.030197	0.000507	5.067359	0.858434	0.000101
1972	1.9611e+02	-0.7364	-54.824303	0.001034	10.337413	1.751205	0.000207
1973	1.9621e+02	-0.7163	-54.751635	0.000365	3.648499	0.618072	0.000073
1974	1.9631e+02	-0.6961	-54.610335	0.000709	7.094303	1.201807	0.000142
1975	1.9641e+02	-0.6768	-54.460961	0.000750	7.499692	1.270482	0.000150
1976	1.9651e+02	-0.6561	-54.372144	0.000446	4.459276	0.755422	0.000089
1977	1.9661e+02	-0.6369	-54.174324	0.000993	9.932024	1.682530	0.000199
1978	1.9671e+02	-0.6164	-54.049173	0.000628	6.283525	1.064458	0.000126
1979	1.9681e+02	-0.5968	-53.887688	0.000811	8.107775	1.373494	0.000162
1980	1.9691e+02	-0.5774	-53.710054	0.000892	8.918552	1.510844	0.000179
1981	1.9701e+02	-0.5567	-53.633348	0.000385	3.851193	0.652410	0.000077
1982	1.9711e+02	-0.5376	-53.500123	0.000669	6.688914	1.133133	0.000134
1983	1.9721e+02	-0.5179	-53.366897	0.000669	6.688914	1.133133	0.000134
1984	1.9731e+02	-0.4970	-53.209449	0.000791	7.905080	1.339157	0.000158
1985	1.9741e+02	-0.4773	-53.056038	0.000770	7.702386	1.304820	0.000154
1986	1.9751e+02	-0.4577	-52.930887	0.000628	6.283525	1.064458	0.000126
1987	1.9761e+02	-0.4370	-52.753253	0.000892	8.918552	1.510844	0.000179
1988	1.9771e+02	-0.4179	-52.640213	0.000568	5.675442	0.961446	0.000114
1989	1.9781e+02	-0.3978	-52.511025	0.000649	6.486220	1.098795	0.000130
1990	1.9791e+02	-0.3780	-52.337428	0.000872	8.715858	1.476506	0.000174
1991	1.9800e+02	-0.3579	-52.216314	0.000608	6.080831	1.030121	0.000122
1992	1.9810e+02	-0.3380	-52.070977	0.000730	7.296997	1.236145	0.000146
1993	1.9820e+02	-0.3184	-51.933714	0.000689	6.891609	1.167470	0.000138
1994	1.9830e+02	-0.2976	-51.816637	0.000588	5.878137	0.995783	0.000118
1995	1.9840e+02	-0.2782	-51.671300	0.000730	7.296997	1.236145	0.000146
1996	1.9850e+02	-0.2582	-51.521926	0.000750	7.499692	1.270482	0.000150
1997	1.9860e+02	-0.2382	-51.416961	0.000527	5.270054	0.892771	0.000105
1998	1.9870e+02	-0.2182	-51.271624	0.000730	7.296997	1.236145	0.000146
1999	1.9880e+02	-0.1989	-51.138398	0.000669	6.688914	1.133133	0.000134
2000	1.9890e+02	-0.1775	-51.001136	0.000689	6.891609	1.167470	0.000138
2001	1.9900e+02	-0.1581	-50.863873	0.000689	6.891609	1.167470	0.000138
2002	1.9910e+02	-0.1379	-50.726611	0.000689	6.891609	1.167470	0.000138
2003	1.9920e+02	-0.1181	-50.597422	0.000649	6.486220	1.098795	0.000130
2004	1.9930e+02	-0.0986	-50.444011	0.000770	7.702386	1.304820	0.000154
2005	1.9940e+02	-0.0787	-50.314823	0.000649	6.486220	1.098795	0.000130
2006	1.9950e+02	-0.0584	-50.165449	0.000750	7.499692	1.270482	0.000150
2007	1.9960e+02	-0.0390	-50.048372	0.000588	5.878137	0.995783	0.000118
2008	1.9970e+02	-0.0196	-49.931295	0.000588	5.878137	0.995783	0.000118
2009	1.9980e+02	0.0003	-49.810181	0.000588	5.878137	0.995783	0.000122

PMax (uC/cm2):	5.74e+01
Pr (uC/cm2):	4.09e+00
-Pr (uC/cm2):	-8.52e+01
PLoss (uC/cm2):	-8.52e+01
-Vc:	-5.95e-01
C (Max-Eff) (nF):	5.75e-01
K (Eff):	9.73e+02
Vert. (+/-Pr) Shift (uC/cm2):	-4.06e+01
Offset (uC/cm2):	-3.54e+01

A (Loop Area - uC/cm2·Volts):	-5.30e-01



Hysteresis Version: 5.48.1 - Radiant Technologies, Inc., 1999 - 9/12/24

