»»»»»»»»»»»»»»»»»»»»»»»»»»»»»»»»»»»» Hysteresis ««««««««««««««««««««««««««««««««««««
»»»  Executed Version:	5.48.1
»»»  Vision Version:	5.48.4 (R)
»»»  Vision Compiled:	9/18/24
»»»  Driver Version:	5.47.0
»»»  Windows Version:	Windows 8 or 8.1
»»»  Processor Information:	x86 (AMD or Intel) - 32 Processors
»»»  Tester Name:	PMF21124-494 (100V)
»»»  Tester S/N:	PMF21124-494
»»»  Internal Amp Type:	100V RevK 270k
»»»  Internal Amp S/N:	iAB2-596/K     
»»»  Execution Count:	1
»»»»»»»»»»»»»»»»»»»»»»»»»»»»»»»»»»»»»»»»»»««««««««««««««««««««««««««««««««««««««««««

Stored:	7/7/2025 - 15:28:31
Configured:	07/07/25 01:27:50 PM
Executed:	07/07/25 03:28:01 PM

»»»»»»»»»»»»»»»»»»»»»»»»»»»»»»»»»»» Sample Info ««««««««««««««««««««««««««««««««««««
Sample Name:	
Lot Name:	
Wafer Name:	
Die Row/Column:	0/0
Capacitor Number:	0
Sample Area (cm2):	1.00e-04
Sample Thickness (microns):	1.50e-01

Amplifier:	Internal

»»»»»»»»»»»»»»»»»»»»»»»»»»»»»»»»»»» Tester Info «««««««««««««««««««««««««««««««««««
Tester Name:	PMF21124-494 (100V)
Tester Serial Number:	PMF21124-494
Return Signal Amp. Level:	0.19 [Index: 3]

»»»»»»»»»»»»»»»»»»»»»»»»»»»»»»»» Hysteresis Info ««««««««««««««««««««««««««««««««««
Task Name:	Hyst-528
Volts:	10.00
Field:	666.67 (kV/cm)
DCBias:	0.00
DCField:	0.00 (kV/cm)
Hysteresis Period (ms):	2.00e+02
Preset:	Enabled
Preset Delay (ms):	1.00e+03
Profile:	Standard Bipolar

»»»»»»»»»»»»»»»»»»»»»»»»»»»»»»»»»»»»»» Data «««««««««««««««««««««««««««««««««««««««
Points:	2009

Valid Data

Point	Time (ms)	Drive Voltage	Measured Polarization (uC/cm2)	Capacitance (uF)	Normalized Capacitance (uF/cm2)	Dielectric Constant	Instantaneous Current (mA)
   1	0.0000e+00	-0.0002	24.349984	0.000547	5.473072	0.927163	0.000110
   2	9.9500e-02	0.0195	24.458987	0.000547	5.473072	0.927163	0.000110
   3	1.9900e-01	0.0385	24.531655	0.000365	3.648714	0.618109	0.000073
   4	2.9850e-01	0.0584	24.660844	0.000649	6.486603	1.098860	0.000130
   5	3.9800e-01	0.0789	24.761772	0.000507	5.067659	0.858485	0.000101
   6	4.9750e-01	0.0991	24.866738	0.000527	5.270365	0.892824	0.000105
   7	5.9700e-01	0.1186	24.931332	0.000324	3.243302	0.549430	0.000065
   8	6.9650e-01	0.1384	25.056483	0.000628	6.283897	1.064521	0.000126
   9	7.9600e-01	0.1596	25.141263	0.000426	4.256833	0.721127	0.000085
  10	8.9550e-01	0.1789	25.258340	0.000588	5.878484	0.995842	0.000118
  11	9.9500e-01	0.1989	25.318897	0.000304	3.040595	0.515091	0.000061
  12	1.0945e+00	0.2179	25.444048	0.000628	6.283897	1.064521	0.000126
  13	1.1940e+00	0.2383	25.544976	0.000507	5.067659	0.858485	0.000101
  14	1.2935e+00	0.2584	25.666090	0.000608	6.081191	1.030182	0.000122
  15	1.3930e+00	0.2782	25.714536	0.000243	2.432476	0.412073	0.000049
  16	1.4925e+00	0.2982	25.839687	0.000628	6.283897	1.064521	0.000126
  17	1.5920e+00	0.3185	25.952727	0.000568	5.675778	0.961503	0.000114
  18	1.6915e+00	0.3384	26.001173	0.000243	2.432476	0.412073	0.000049
  19	1.7910e+00	0.3567	26.134398	0.000669	6.689310	1.133200	0.000134
  20	1.8905e+00	0.3773	26.235327	0.000507	5.067659	0.858485	0.000101
  21	1.9900e+00	0.3983	26.332218	0.000486	4.864953	0.824145	0.000097
  22	2.0895e+00	0.4175	26.453332	0.000608	6.081191	1.030182	0.000122
  23	2.1890e+00	0.4381	26.554260	0.000507	5.067659	0.858485	0.000101
  24	2.2885e+00	0.4581	26.671337	0.000588	5.878484	0.995842	0.000118
  25	2.3880e+00	0.4786	26.760154	0.000446	4.459540	0.755467	0.000089
  26	2.4875e+00	0.4974	26.873194	0.000568	5.675778	0.961503	0.000114
  27	2.5870e+00	0.5181	26.974122	0.000507	5.067659	0.858485	0.000101
  28	2.6865e+00	0.5379	27.054865	0.000405	4.054127	0.686788	0.000081
  29	2.7860e+00	0.5574	27.180016	0.000628	6.283897	1.064521	0.000126
  30	2.8855e+00	0.5767	27.301130	0.000608	6.081191	1.030182	0.000122
  31	2.9850e+00	0.5970	27.357650	0.000284	2.837889	0.480751	0.000057
  32	3.0845e+00	0.6165	27.507024	0.000750	7.500135	1.270557	0.000150
  33	3.1840e+00	0.6376	27.579693	0.000365	3.648714	0.618109	0.000073
  34	3.2835e+00	0.6568	27.696770	0.000588	5.878484	0.995842	0.000118
  35	3.3830e+00	0.6777	27.785587	0.000446	4.459540	0.755467	0.000089
  36	3.4825e+00	0.6969	27.922849	0.000689	6.892016	1.167539	0.000138
  37	3.5820e+00	0.7162	27.987444	0.000324	3.243302	0.549430	0.000065
  38	3.6815e+00	0.7362	28.132780	0.000730	7.297429	1.236218	0.000146
  39	3.7810e+00	0.7571	28.257932	0.000628	6.283897	1.064521	0.000126
  40	3.8805e+00	0.7773	28.375009	0.000588	5.878484	0.995842	0.000118
  41	3.9800e+00	0.7967	28.475937	0.000507	5.067659	0.858485	0.000101
  42	4.0795e+00	0.8154	28.588977	0.000568	5.675778	0.961503	0.000114
  43	4.1790e+00	0.8366	28.681831	0.000466	4.662246	0.789806	0.000093
  44	4.2785e+00	0.8557	28.786796	0.000527	5.270365	0.892824	0.000105
  45	4.3780e+00	0.8765	28.920022	0.000669	6.689310	1.133200	0.000134
  46	4.4775e+00	0.8965	28.972505	0.000264	2.635183	0.446412	0.000053
  47	4.5770e+00	0.9158	29.105730	0.000669	6.689310	1.133200	0.000134
  48	4.6765e+00	0.9365	29.238956	0.000669	6.689310	1.133200	0.000134
  49	4.7760e+00	0.9559	29.360070	0.000608	6.081191	1.030182	0.000122
  50	4.8755e+00	0.9760	29.456961	0.000486	4.864953	0.824145	0.000097
  51	4.9750e+00	0.9960	29.622483	0.000831	8.310961	1.407915	0.000166
  52	5.0745e+00	1.0156	29.691115	0.000345	3.446008	0.583770	0.000069
  53	5.1740e+00	1.0350	29.804155	0.000568	5.675778	0.961503	0.000114
  54	5.2735e+00	1.0557	29.909120	0.000527	5.270365	0.892824	0.000105
  55	5.3730e+00	1.0756	30.030234	0.000608	6.081191	1.030182	0.000122
  56	5.4725e+00	1.0959	30.175571	0.000730	7.297429	1.236218	0.000146
  57	5.5720e+00	1.1153	30.276499	0.000507	5.067659	0.858485	0.000101
  58	5.6715e+00	1.1354	30.369354	0.000466	4.662246	0.789806	0.000093
  59	5.7710e+00	1.1556	30.538913	0.000851	8.513667	1.442254	0.000170
  60	5.8705e+00	1.1745	30.599470	0.000304	3.040595	0.515091	0.000061
  61	5.9700e+00	1.1958	30.740770	0.000709	7.094722	1.201879	0.000142
  62	6.0695e+00	1.2148	30.833624	0.000466	4.662246	0.789806	0.000093
  63	6.1690e+00	1.2353	30.987035	0.000770	7.702842	1.304897	0.000154
  64	6.2685e+00	1.2545	31.047592	0.000304	3.040595	0.515091	0.000061
  65	6.3680e+00	1.2749	31.180818	0.000669	6.689310	1.133200	0.000134
  66	6.4675e+00	1.2945	31.277709	0.000486	4.864953	0.824145	0.000097
  67	6.5670e+00	1.3143	31.419009	0.000709	7.094722	1.201879	0.000142
  68	6.6665e+00	1.3325	31.519937	0.000507	5.067659	0.858485	0.000101
  69	6.7660e+00	1.3531	31.665274	0.000730	7.297429	1.236218	0.000146
  70	6.8655e+00	1.3732	31.746017	0.000405	4.054127	0.686788	0.000081
  71	6.9650e+00	1.3934	31.863094	0.000588	5.878484	0.995842	0.000118
  72	7.0645e+00	1.4132	31.996319	0.000669	6.689310	1.133200	0.000134
  73	7.1640e+00	1.4342	32.105322	0.000547	5.473072	0.927163	0.000110
  74	7.2635e+00	1.4527	32.202213	0.000486	4.864953	0.824145	0.000097
  75	7.3630e+00	1.4737	32.335439	0.000669	6.689310	1.133200	0.000134
  76	7.4625e+00	1.4929	32.444441	0.000547	5.473072	0.927163	0.000110
  77	7.5620e+00	1.5137	32.557481	0.000568	5.675778	0.961503	0.000114
  78	7.6615e+00	1.5334	32.690707	0.000669	6.689310	1.133200	0.000134
  79	7.7610e+00	1.5530	32.787598	0.000486	4.864953	0.824145	0.000097
  80	7.8605e+00	1.5726	32.896601	0.000547	5.473072	0.927163	0.000110
  81	7.9600e+00	1.5929	33.005603	0.000547	5.473072	0.927163	0.000110
  82	8.0595e+00	1.6131	33.154977	0.000750	7.500135	1.270557	0.000150
  83	8.1590e+00	1.6322	33.259943	0.000527	5.270365	0.892824	0.000105
  84	8.2585e+00	1.6520	33.381057	0.000608	6.081191	1.030182	0.000122
  85	8.3580e+00	1.6730	33.481985	0.000507	5.067659	0.858485	0.000101
  86	8.4575e+00	1.6927	33.619248	0.000689	6.892016	1.167539	0.000138
  87	8.5570e+00	1.7130	33.724213	0.000527	5.270365	0.892824	0.000105
  88	8.6565e+00	1.7322	33.804956	0.000405	4.054127	0.686788	0.000081
  89	8.7560e+00	1.7518	33.970479	0.000831	8.310961	1.407915	0.000166
  90	8.8555e+00	1.7726	34.075444	0.000527	5.270365	0.892824	0.000105
  91	8.9550e+00	1.7924	34.176373	0.000507	5.067659	0.858485	0.000101
  92	9.0545e+00	1.8119	34.313635	0.000689	6.892016	1.167539	0.000138
  93	9.1540e+00	1.8327	34.430712	0.000588	5.878484	0.995842	0.000118
  94	9.2535e+00	1.8523	34.551826	0.000608	6.081191	1.030182	0.000122
  95	9.3530e+00	1.8720	34.668903	0.000588	5.878484	0.995842	0.000118
  96	9.4525e+00	1.8918	34.781943	0.000568	5.675778	0.961503	0.000114
  97	9.5520e+00	1.9117	34.911131	0.000649	6.486603	1.098860	0.000130
  98	9.6515e+00	1.9314	34.979763	0.000345	3.446008	0.583770	0.000069
  99	9.7510e+00	1.9525	35.161434	0.000912	9.121786	1.545272	0.000183
 100	9.8505e+00	1.9710	35.254288	0.000466	4.662246	0.789806	0.000093
 101	9.9500e+00	1.9914	35.359253	0.000527	5.270365	0.892824	0.000105
 102	1.0050e+01	2.0104	35.456145	0.000486	4.864953	0.824145	0.000097
 103	1.0149e+01	2.0298	35.613593	0.000791	7.905548	1.339236	0.000158
 104	1.0248e+01	2.0498	35.702410	0.000446	4.459540	0.755467	0.000089
 105	1.0348e+01	2.0705	35.843710	0.000709	7.094722	1.201879	0.000142
 106	1.0447e+01	2.0905	35.985009	0.000709	7.094722	1.201879	0.000142
 107	1.0547e+01	2.1110	36.110161	0.000628	6.283897	1.064521	0.000126
 108	1.0646e+01	2.1305	36.198978	0.000446	4.459540	0.755467	0.000089
 109	1.0746e+01	2.1511	36.312017	0.000568	5.675778	0.961503	0.000114
 110	1.0845e+01	2.1711	36.457354	0.000730	7.297429	1.236218	0.000146
 111	1.0945e+01	2.1919	36.538097	0.000405	4.054127	0.686788	0.000081
 112	1.1044e+01	2.2108	36.691508	0.000770	7.702842	1.304897	0.000154
 113	1.1144e+01	2.2313	36.800511	0.000547	5.473072	0.927163	0.000110
 114	1.1243e+01	2.2509	36.925662	0.000628	6.283897	1.064521	0.000126
 115	1.1343e+01	2.2714	36.998330	0.000365	3.648714	0.618109	0.000073
 116	1.1443e+01	2.2903	37.163853	0.000831	8.310961	1.407915	0.000166
 117	1.1542e+01	2.3098	37.248633	0.000426	4.256833	0.721127	0.000085
 118	1.1642e+01	2.3297	37.373784	0.000628	6.283897	1.064521	0.000126
 119	1.1741e+01	2.3508	37.502972	0.000649	6.486603	1.098860	0.000130
 120	1.1841e+01	2.3695	37.611975	0.000547	5.473072	0.927163	0.000110
 121	1.1940e+01	2.3901	37.716941	0.000527	5.270365	0.892824	0.000105
 122	1.2040e+01	2.4100	37.846129	0.000649	6.486603	1.098860	0.000130
 123	1.2139e+01	2.4301	37.922835	0.000385	3.851421	0.652448	0.000077
 124	1.2239e+01	2.4496	38.104506	0.000912	9.121786	1.545272	0.000183
 125	1.2338e+01	2.4700	38.197360	0.000466	4.662246	0.789806	0.000093
 126	1.2438e+01	2.4897	38.314437	0.000588	5.878484	0.995842	0.000118
 127	1.2537e+01	2.5082	38.395179	0.000405	4.054127	0.686788	0.000081
 128	1.2636e+01	2.5293	38.512256	0.000588	5.878484	0.995842	0.000118
 129	1.2736e+01	2.5500	38.649519	0.000689	6.892016	1.167539	0.000138
 130	1.2835e+01	2.5686	38.766596	0.000588	5.878484	0.995842	0.000118
 131	1.2935e+01	2.5893	38.879636	0.000568	5.675778	0.961503	0.000114
 132	1.3034e+01	2.6080	39.012861	0.000669	6.689310	1.133200	0.000134
 133	1.3134e+01	2.6287	39.142050	0.000649	6.486603	1.098860	0.000130
 134	1.3233e+01	2.6492	39.218755	0.000385	3.851421	0.652448	0.000077
 135	1.3333e+01	2.6696	39.327758	0.000547	5.473072	0.927163	0.000110
 136	1.3432e+01	2.6887	39.444835	0.000588	5.878484	0.995842	0.000118
 137	1.3532e+01	2.7093	39.565949	0.000608	6.081191	1.030182	0.000122
 138	1.3632e+01	2.7287	39.654766	0.000446	4.459540	0.755467	0.000089
 139	1.3731e+01	2.7483	39.804140	0.000750	7.500135	1.270557	0.000150
 140	1.3831e+01	2.7688	39.892957	0.000446	4.459540	0.755467	0.000089
 141	1.3930e+01	2.7882	40.050405	0.000791	7.905548	1.339236	0.000158
 142	1.4030e+01	2.8088	40.123074	0.000365	3.648714	0.618109	0.000073
 143	1.4129e+01	2.8279	40.232076	0.000547	5.473072	0.927163	0.000110
 144	1.4229e+01	2.8481	40.341079	0.000547	5.473072	0.927163	0.000110
 145	1.4328e+01	2.8680	40.470267	0.000649	6.486603	1.098860	0.000130
 146	1.4428e+01	2.8873	40.563121	0.000466	4.662246	0.789806	0.000093
 147	1.4527e+01	2.9079	40.708458	0.000730	7.297429	1.236218	0.000146
 148	1.4627e+01	2.9277	40.825535	0.000588	5.878484	0.995842	0.000118
 149	1.4726e+01	2.9478	40.962798	0.000689	6.892016	1.167539	0.000138
 150	1.4825e+01	2.9673	41.067763	0.000527	5.270365	0.892824	0.000105
 151	1.4925e+01	2.9868	41.172729	0.000527	5.270365	0.892824	0.000105
 152	1.5024e+01	3.0071	41.277694	0.000527	5.270365	0.892824	0.000105
 153	1.5124e+01	3.0274	41.410920	0.000669	6.689310	1.133200	0.000134
 154	1.5223e+01	3.0476	41.507811	0.000486	4.864953	0.824145	0.000097
 155	1.5323e+01	3.0671	41.636999	0.000649	6.486603	1.098860	0.000130
 156	1.5422e+01	3.0865	41.766188	0.000649	6.486603	1.098860	0.000130
 157	1.5522e+01	3.1070	41.871153	0.000527	5.270365	0.892824	0.000105
 158	1.5621e+01	3.1269	42.008416	0.000689	6.892016	1.167539	0.000138
 159	1.5721e+01	3.1469	42.085122	0.000385	3.851421	0.652448	0.000077
 160	1.5820e+01	3.1672	42.190087	0.000527	5.270365	0.892824	0.000105
 161	1.5920e+01	3.1865	42.323313	0.000669	6.689310	1.133200	0.000134
 162	1.6020e+01	3.2072	42.452501	0.000649	6.486603	1.098860	0.000130
 163	1.6119e+01	3.2267	42.545355	0.000466	4.662246	0.789806	0.000093
 164	1.6218e+01	3.2466	42.666469	0.000608	6.081191	1.030182	0.000122
 165	1.6318e+01	3.2667	42.771435	0.000527	5.270365	0.892824	0.000105
 166	1.6418e+01	3.2859	42.920809	0.000750	7.500135	1.270557	0.000150
 167	1.6517e+01	3.3064	43.049997	0.000649	6.486603	1.098860	0.000130
 168	1.6616e+01	3.3263	43.138814	0.000446	4.459540	0.755467	0.000089
 169	1.6716e+01	3.3456	43.251854	0.000568	5.675778	0.961503	0.000114
 170	1.6816e+01	3.3666	43.377005	0.000628	6.283897	1.064521	0.000126
 171	1.6915e+01	3.3858	43.473896	0.000486	4.864953	0.824145	0.000097
 172	1.7015e+01	3.4054	43.586936	0.000568	5.675778	0.961503	0.000114
 173	1.7114e+01	3.4258	43.704013	0.000588	5.878484	0.995842	0.000118
 174	1.7213e+01	3.4454	43.853387	0.000750	7.500135	1.270557	0.000150
 175	1.7313e+01	3.4657	43.946241	0.000466	4.662246	0.789806	0.000093
 176	1.7413e+01	3.4844	43.998724	0.000264	2.635183	0.446412	0.000053
 177	1.7512e+01	3.5064	44.152135	0.000770	7.702842	1.304897	0.000154
 178	1.7611e+01	3.5251	44.257101	0.000527	5.270365	0.892824	0.000105
 179	1.7711e+01	3.5458	44.374177	0.000588	5.878484	0.995842	0.000118
 180	1.7811e+01	3.5661	44.511440	0.000689	6.892016	1.167539	0.000138
 181	1.7910e+01	3.5858	44.632554	0.000608	6.081191	1.030182	0.000122
 182	1.8009e+01	3.6056	44.773854	0.000709	7.094722	1.201879	0.000142
 183	1.8109e+01	3.6245	44.846522	0.000365	3.648714	0.618109	0.000073
 184	1.8209e+01	3.6445	44.967636	0.000608	6.081191	1.030182	0.000122
 185	1.8308e+01	3.6658	45.036268	0.000345	3.446008	0.583770	0.000069
 186	1.8407e+01	3.6849	45.185642	0.000750	7.500135	1.270557	0.000150
 187	1.8507e+01	3.7053	45.242162	0.000284	2.837889	0.480751	0.000057
 188	1.8607e+01	3.7247	45.375387	0.000669	6.689310	1.133200	0.000134
 189	1.8706e+01	3.7450	45.500538	0.000628	6.283897	1.064521	0.000126
 190	1.8805e+01	3.7646	45.633764	0.000669	6.689310	1.133200	0.000134
 191	1.8905e+01	3.7838	45.726618	0.000466	4.662246	0.789806	0.000093
 192	1.9005e+01	3.8039	45.815435	0.000446	4.459540	0.755467	0.000089
 193	1.9104e+01	3.8242	45.940586	0.000628	6.283897	1.064521	0.000126
 194	1.9203e+01	3.8438	46.077849	0.000689	6.892016	1.167539	0.000138
 195	1.9303e+01	3.8634	46.170703	0.000466	4.662246	0.789806	0.000093
 196	1.9402e+01	3.8836	46.307965	0.000689	6.892016	1.167539	0.000138
 197	1.9502e+01	3.9034	46.392745	0.000426	4.256833	0.721127	0.000085
 198	1.9602e+01	3.9240	46.534045	0.000709	7.094722	1.201879	0.000142
 199	1.9701e+01	3.9427	46.663233	0.000649	6.486603	1.098860	0.000130
 200	1.9800e+01	3.9635	46.743976	0.000405	4.054127	0.686788	0.000081
 201	1.9900e+01	3.9837	46.873164	0.000649	6.486603	1.098860	0.000130
 202	2.0000e+01	4.0031	46.986204	0.000568	5.675778	0.961503	0.000114
 203	2.0099e+01	4.0235	47.042724	0.000284	2.837889	0.480751	0.000057
 204	2.0198e+01	4.0437	47.196135	0.000770	7.702842	1.304897	0.000154
 205	2.0298e+01	4.0623	47.317249	0.000608	6.081191	1.030182	0.000122
 206	2.0398e+01	4.0832	47.462586	0.000730	7.297429	1.236218	0.000146
 207	2.0497e+01	4.1039	47.519106	0.000284	2.837889	0.480751	0.000057
 208	2.0596e+01	4.1234	47.660406	0.000709	7.094722	1.201879	0.000142
 209	2.0696e+01	4.1442	47.769409	0.000547	5.473072	0.927163	0.000110
 210	2.0796e+01	4.1628	47.878411	0.000547	5.473072	0.927163	0.000110
 211	2.0895e+01	4.1822	47.991451	0.000568	5.675778	0.961503	0.000114
 212	2.0994e+01	4.2030	48.096417	0.000527	5.270365	0.892824	0.000105
 213	2.1094e+01	4.2219	48.221568	0.000628	6.283897	1.064521	0.000126
 214	2.1194e+01	4.2429	48.306348	0.000426	4.256833	0.721127	0.000085
 215	2.1293e+01	4.2632	48.431499	0.000628	6.283897	1.064521	0.000126
 216	2.1392e+01	4.2831	48.536464	0.000527	5.270365	0.892824	0.000105
 217	2.1492e+01	4.3014	48.689876	0.000770	7.702842	1.304897	0.000154
 218	2.1591e+01	4.3230	48.762544	0.000365	3.648714	0.618109	0.000073
 219	2.1691e+01	4.3429	48.899807	0.000689	6.892016	1.167539	0.000138
 220	2.1791e+01	4.3621	49.028995	0.000649	6.486603	1.098860	0.000130
 221	2.1890e+01	4.3819	49.129923	0.000507	5.067659	0.858485	0.000101
 222	2.1989e+01	4.4019	49.242963	0.000568	5.675778	0.961503	0.000114
 223	2.2089e+01	4.4221	49.368114	0.000628	6.283897	1.064521	0.000126
 224	2.2189e+01	4.4415	49.473080	0.000527	5.270365	0.892824	0.000105
 225	2.2288e+01	4.4614	49.598231	0.000628	6.283897	1.064521	0.000126
 226	2.2387e+01	4.4808	49.719345	0.000608	6.081191	1.030182	0.000122
 227	2.2487e+01	4.5024	49.804125	0.000426	4.256833	0.721127	0.000085
 228	2.2587e+01	4.5208	49.901016	0.000486	4.864953	0.824145	0.000097
 229	2.2686e+01	4.5419	50.058465	0.000791	7.905548	1.339236	0.000158
 230	2.2785e+01	4.5614	50.127096	0.000345	3.446008	0.583770	0.000069
 231	2.2885e+01	4.5840	50.248210	0.000608	6.081191	1.030182	0.000122
 232	2.2985e+01	4.6017	50.369324	0.000608	6.081191	1.030182	0.000122
 233	2.3084e+01	4.6214	50.486401	0.000588	5.878484	0.995842	0.000118
 234	2.3183e+01	4.6408	50.607515	0.000608	6.081191	1.030182	0.000122
 235	2.3283e+01	4.6610	50.680183	0.000365	3.648714	0.618109	0.000073
 236	2.3383e+01	4.6803	50.801298	0.000608	6.081191	1.030182	0.000122
 237	2.3482e+01	4.7013	50.890115	0.000446	4.459540	0.755467	0.000089
 238	2.3581e+01	4.7211	51.051600	0.000811	8.108254	1.373575	0.000162
 239	2.3681e+01	4.7409	51.152528	0.000507	5.067659	0.858485	0.000101
 240	2.3780e+01	4.7608	51.241345	0.000446	4.459540	0.755467	0.000089
 241	2.3880e+01	4.7810	51.374571	0.000669	6.689310	1.133200	0.000134
 242	2.3980e+01	4.8009	51.447239	0.000365	3.648714	0.618109	0.000073
 243	2.4079e+01	4.8210	51.568353	0.000608	6.081191	1.030182	0.000122
 244	2.4178e+01	4.8400	51.709653	0.000709	7.094722	1.201879	0.000142
 245	2.4278e+01	4.8598	51.774247	0.000324	3.243302	0.549430	0.000065
 246	2.4378e+01	4.8800	51.895361	0.000608	6.081191	1.030182	0.000122
 247	2.4477e+01	4.9001	52.000327	0.000527	5.270365	0.892824	0.000105
 248	2.4576e+01	4.9195	52.113367	0.000568	5.675778	0.961503	0.000114
 249	2.4676e+01	4.9399	52.234481	0.000608	6.081191	1.030182	0.000122
 250	2.4776e+01	4.9590	52.303112	0.000345	3.446008	0.583770	0.000069
 251	2.4875e+01	4.9798	52.428263	0.000628	6.283897	1.064521	0.000126
 252	2.4974e+01	4.9996	52.545340	0.000588	5.878484	0.995842	0.000118
 253	2.5074e+01	5.0198	52.638194	0.000466	4.662246	0.789806	0.000093
 254	2.5174e+01	5.0397	52.739123	0.000507	5.067659	0.858485	0.000101
 255	2.5273e+01	5.0590	52.896571	0.000791	7.905548	1.339236	0.000158
 256	2.5372e+01	5.0782	52.961165	0.000324	3.243302	0.549430	0.000065
 257	2.5472e+01	5.1004	53.114576	0.000770	7.702842	1.304897	0.000154
 258	2.5572e+01	5.1183	53.195319	0.000405	4.054127	0.686788	0.000081
 259	2.5671e+01	5.1386	53.276062	0.000405	4.054127	0.686788	0.000081
 260	2.5770e+01	5.1583	53.417362	0.000709	7.094722	1.201879	0.000142
 261	2.5870e+01	5.1791	53.510216	0.000466	4.662246	0.789806	0.000093
 262	2.5970e+01	5.1983	53.631330	0.000608	6.081191	1.030182	0.000122
 263	2.6069e+01	5.2182	53.740332	0.000547	5.473072	0.927163	0.000110
 264	2.6169e+01	5.2384	53.829149	0.000446	4.459540	0.755467	0.000089
 265	2.6268e+01	5.2585	53.942189	0.000568	5.675778	0.961503	0.000114
 266	2.6367e+01	5.2782	54.035043	0.000466	4.662246	0.789806	0.000093
 267	2.6467e+01	5.2984	54.148083	0.000568	5.675778	0.961503	0.000114
 268	2.6567e+01	5.3182	54.293420	0.000730	7.297429	1.236218	0.000146
 269	2.6666e+01	5.3378	54.394348	0.000507	5.067659	0.858485	0.000101
 270	2.6765e+01	5.3579	54.495277	0.000507	5.067659	0.858485	0.000101
 271	2.6865e+01	5.3786	54.600242	0.000527	5.270365	0.892824	0.000105
 272	2.6965e+01	5.3974	54.709245	0.000547	5.473072	0.927163	0.000110
 273	2.7064e+01	5.4178	54.798062	0.000446	4.459540	0.755467	0.000089
 274	2.7163e+01	5.4387	54.923213	0.000628	6.283897	1.064521	0.000126
 275	2.7263e+01	5.4561	54.999919	0.000385	3.851421	0.652448	0.000077
 276	2.7363e+01	5.4772	55.121033	0.000608	6.081191	1.030182	0.000122
 277	2.7462e+01	5.4971	55.165441	0.000223	2.229770	0.377733	0.000045
 278	2.7561e+01	5.5177	55.310778	0.000730	7.297429	1.236218	0.000146
 279	2.7661e+01	5.5373	55.407669	0.000486	4.864953	0.824145	0.000097
 280	2.7761e+01	5.5573	55.532821	0.000628	6.283897	1.064521	0.000126
 281	2.7860e+01	5.5770	55.637786	0.000527	5.270365	0.892824	0.000105
 282	2.7959e+01	5.5968	55.783123	0.000730	7.297429	1.236218	0.000146
 283	2.8059e+01	5.6167	55.819457	0.000182	1.824357	0.309054	0.000037
 284	2.8159e+01	5.6374	55.972868	0.000770	7.702842	1.304897	0.000154
 285	2.8258e+01	5.6568	56.077834	0.000527	5.270365	0.892824	0.000105
 286	2.8358e+01	5.6753	56.146465	0.000345	3.446008	0.583770	0.000069
 287	2.8457e+01	5.6973	56.279691	0.000669	6.689310	1.133200	0.000134
 288	2.8556e+01	5.7160	56.320062	0.000203	2.027064	0.343394	0.000041
 289	2.8656e+01	5.7366	56.461362	0.000709	7.094722	1.201879	0.000142
 290	2.8756e+01	5.7568	56.570365	0.000547	5.473072	0.927163	0.000110
 291	2.8855e+01	5.7764	56.667256	0.000486	4.864953	0.824145	0.000097
 292	2.8954e+01	5.7959	56.780296	0.000568	5.675778	0.961503	0.000114
 293	2.9054e+01	5.8169	56.869113	0.000446	4.459540	0.755467	0.000089
 294	2.9154e+01	5.8355	56.941781	0.000365	3.648714	0.618109	0.000073
 295	2.9253e+01	5.8555	57.070969	0.000649	6.486603	1.098860	0.000130
 296	2.9352e+01	5.8759	57.131526	0.000304	3.040595	0.515091	0.000061
 297	2.9452e+01	5.8961	57.260715	0.000649	6.486603	1.098860	0.000130
 298	2.9552e+01	5.9161	57.365680	0.000527	5.270365	0.892824	0.000105
 299	2.9651e+01	5.9362	57.454497	0.000446	4.459540	0.755467	0.000089
 300	2.9750e+01	5.9559	57.583686	0.000649	6.486603	1.098860	0.000130
 301	2.9850e+01	5.9759	57.656354	0.000365	3.648714	0.618109	0.000073
 302	2.9950e+01	5.9963	57.749208	0.000466	4.662246	0.789806	0.000093
 303	3.0049e+01	6.0156	57.833988	0.000426	4.256833	0.721127	0.000085
 304	3.0148e+01	6.0352	57.942991	0.000547	5.473072	0.927163	0.000110
 305	3.0248e+01	6.0555	58.039882	0.000486	4.864953	0.824145	0.000097
 306	3.0348e+01	6.0755	58.181182	0.000709	7.094722	1.201879	0.000142
 307	3.0447e+01	6.0952	58.233664	0.000264	2.635183	0.446412	0.000053
 308	3.0547e+01	6.1153	58.350741	0.000588	5.878484	0.995842	0.000118
 309	3.0646e+01	6.1353	58.403224	0.000264	2.635183	0.446412	0.000053
 310	3.0745e+01	6.1549	58.556635	0.000770	7.702842	1.304897	0.000154
 311	3.0845e+01	6.1745	58.621229	0.000324	3.243302	0.549430	0.000065
 312	3.0945e+01	6.1948	58.734269	0.000568	5.675778	0.961503	0.000114
 313	3.1044e+01	6.2158	58.827123	0.000466	4.662246	0.789806	0.000093
 314	3.1143e+01	6.2354	58.899792	0.000365	3.648714	0.618109	0.000073
 315	3.1243e+01	6.2550	59.037054	0.000689	6.892016	1.167539	0.000138
 316	3.1343e+01	6.2749	59.121834	0.000426	4.256833	0.721127	0.000085
 317	3.1442e+01	6.2951	59.206614	0.000426	4.256833	0.721127	0.000085
 318	3.1541e+01	6.3126	59.307543	0.000507	5.067659	0.858485	0.000101
 319	3.1641e+01	6.3341	59.392322	0.000426	4.256833	0.721127	0.000085
 320	3.1741e+01	6.3529	59.541696	0.000750	7.500135	1.270557	0.000150
 321	3.1840e+01	6.3738	59.598216	0.000284	2.837889	0.480751	0.000057
 322	3.1939e+01	6.3924	59.739516	0.000709	7.094722	1.201879	0.000142
 323	3.2039e+01	6.4137	59.812185	0.000365	3.648714	0.618109	0.000073
 324	3.2139e+01	6.4333	59.925224	0.000568	5.675778	0.961503	0.000114
 325	3.2238e+01	6.4529	59.993856	0.000345	3.446008	0.583770	0.000069
 326	3.2337e+01	6.4727	60.074598	0.000405	4.054127	0.686788	0.000081
 327	3.2437e+01	6.4928	60.183601	0.000547	5.473072	0.927163	0.000110
 328	3.2536e+01	6.5126	60.292604	0.000547	5.473072	0.927163	0.000110
 329	3.2636e+01	6.5332	60.385458	0.000466	4.662246	0.789806	0.000093
 330	3.2736e+01	6.5527	60.421792	0.000182	1.824357	0.309054	0.000037
 331	3.2835e+01	6.5740	60.555018	0.000669	6.689310	1.133200	0.000134
 332	3.2934e+01	6.5934	60.664020	0.000547	5.473072	0.927163	0.000110
 333	3.3034e+01	6.6131	60.789171	0.000628	6.283897	1.064521	0.000126
 334	3.3133e+01	6.6328	60.882025	0.000466	4.662246	0.789806	0.000093
 335	3.3233e+01	6.6528	60.958731	0.000385	3.851421	0.652448	0.000077
 336	3.3333e+01	6.6721	61.059659	0.000507	5.067659	0.858485	0.000101
 337	3.3432e+01	6.6920	61.156551	0.000486	4.864953	0.824145	0.000097
 338	3.3532e+01	6.7119	61.257479	0.000507	5.067659	0.858485	0.000101
 339	3.3631e+01	6.7321	61.330148	0.000365	3.648714	0.618109	0.000073
 340	3.3730e+01	6.7512	61.475484	0.000730	7.297429	1.236218	0.000146
 341	3.3830e+01	6.7722	61.560264	0.000426	4.256833	0.721127	0.000085
 342	3.3929e+01	6.7915	61.636970	0.000385	3.851421	0.652448	0.000077
 343	3.4029e+01	6.8122	61.754047	0.000588	5.878484	0.995842	0.000118
 344	3.4129e+01	6.8313	61.822678	0.000345	3.446008	0.583770	0.000069
 345	3.4228e+01	6.8528	61.911495	0.000446	4.459540	0.755467	0.000089
 346	3.4328e+01	6.8713	62.020498	0.000547	5.473072	0.927163	0.000110
 347	3.4427e+01	6.8922	62.121426	0.000507	5.067659	0.858485	0.000101
 348	3.4526e+01	6.9117	62.202169	0.000405	4.054127	0.686788	0.000081
 349	3.4626e+01	6.9319	62.303097	0.000507	5.067659	0.858485	0.000101
 350	3.4725e+01	6.9505	62.391914	0.000446	4.459540	0.755467	0.000089
 351	3.4825e+01	6.9705	62.480731	0.000446	4.459540	0.755467	0.000089
 352	3.4925e+01	6.9908	62.549363	0.000345	3.446008	0.583770	0.000069
 353	3.5024e+01	7.0107	62.714885	0.000831	8.310961	1.407915	0.000166
 354	3.5123e+01	7.0316	62.775442	0.000304	3.040595	0.515091	0.000061
 355	3.5223e+01	7.0510	62.876371	0.000507	5.067659	0.858485	0.000101
 356	3.5322e+01	7.0703	62.957113	0.000405	4.054127	0.686788	0.000081
 357	3.5422e+01	7.0916	63.025745	0.000345	3.446008	0.583770	0.000069
 358	3.5522e+01	7.1114	63.106487	0.000405	4.054127	0.686788	0.000081
 359	3.5621e+01	7.1306	63.215490	0.000547	5.473072	0.927163	0.000110
 360	3.5721e+01	7.1505	63.324493	0.000547	5.473072	0.927163	0.000110
 361	3.5820e+01	7.1700	63.429458	0.000527	5.270365	0.892824	0.000105
 362	3.5919e+01	7.1901	63.522312	0.000466	4.662246	0.789806	0.000093
 363	3.6019e+01	7.2103	63.615166	0.000466	4.662246	0.789806	0.000093
 364	3.6118e+01	7.2295	63.675723	0.000304	3.040595	0.515091	0.000061
 365	3.6218e+01	7.2503	63.780689	0.000527	5.270365	0.892824	0.000105
 366	3.6318e+01	7.2700	63.889692	0.000547	5.473072	0.927163	0.000110
 367	3.6417e+01	7.2906	63.974471	0.000426	4.256833	0.721127	0.000085
 368	3.6517e+01	7.3096	64.043103	0.000345	3.446008	0.583770	0.000069
 369	3.6616e+01	7.3304	64.135957	0.000466	4.662246	0.789806	0.000093
 370	3.6715e+01	7.3498	64.257071	0.000608	6.081191	1.030182	0.000122
 371	3.6815e+01	7.3690	64.357999	0.000507	5.067659	0.858485	0.000101
 372	3.6914e+01	7.3888	64.438742	0.000405	4.054127	0.686788	0.000081
 373	3.7014e+01	7.4105	64.527559	0.000446	4.459540	0.755467	0.000089
 374	3.7114e+01	7.4297	64.612339	0.000426	4.256833	0.721127	0.000085
 375	3.7213e+01	7.4488	64.697119	0.000426	4.256833	0.721127	0.000085
 376	3.7313e+01	7.4683	64.838419	0.000709	7.094722	1.201879	0.000142
 377	3.7412e+01	7.4905	64.878790	0.000203	2.027064	0.343394	0.000041
 378	3.7511e+01	7.5094	65.016052	0.000689	6.892016	1.167539	0.000138
 379	3.7611e+01	7.5293	65.133129	0.000588	5.878484	0.995842	0.000118
 380	3.7711e+01	7.5480	65.225984	0.000466	4.662246	0.789806	0.000093
 381	3.7810e+01	7.5684	65.298652	0.000365	3.648714	0.618109	0.000073
 382	3.7910e+01	7.5887	65.419766	0.000608	6.081191	1.030182	0.000122
 383	3.8009e+01	7.6093	65.504546	0.000426	4.256833	0.721127	0.000085
 384	3.8108e+01	7.6290	65.593363	0.000446	4.459540	0.755467	0.000089
 385	3.8208e+01	7.6490	65.649883	0.000284	2.837889	0.480751	0.000057
 386	3.8307e+01	7.6687	65.795220	0.000730	7.297429	1.236218	0.000146
 387	3.8407e+01	7.6879	65.884037	0.000446	4.459540	0.755467	0.000089
 388	3.8507e+01	7.7084	65.936519	0.000264	2.635183	0.446412	0.000053
 389	3.8606e+01	7.7280	66.041485	0.000527	5.270365	0.892824	0.000105
 390	3.8706e+01	7.7475	66.138376	0.000486	4.864953	0.824145	0.000097
 391	3.8805e+01	7.7677	66.255453	0.000588	5.878484	0.995842	0.000118
 392	3.8904e+01	7.7891	66.344270	0.000446	4.459540	0.755467	0.000089
 393	3.9004e+01	7.8089	66.457310	0.000568	5.675778	0.961503	0.000114
 394	3.9103e+01	7.8271	66.517867	0.000304	3.040595	0.515091	0.000061
 395	3.9203e+01	7.8476	66.602647	0.000426	4.256833	0.721127	0.000085
 396	3.9303e+01	7.8674	66.723761	0.000608	6.081191	1.030182	0.000122
 397	3.9402e+01	7.8872	66.792392	0.000345	3.446008	0.583770	0.000069
 398	3.9502e+01	7.9064	66.901395	0.000547	5.473072	0.927163	0.000110
 399	3.9601e+01	7.9272	66.978100	0.000385	3.851421	0.652448	0.000077
 400	3.9700e+01	7.9466	67.070955	0.000466	4.662246	0.789806	0.000093
 401	3.9800e+01	7.9677	67.159772	0.000446	4.459540	0.755467	0.000089
 402	3.9900e+01	7.9868	67.236477	0.000385	3.851421	0.652448	0.000077
 403	3.9999e+01	8.0085	67.349517	0.000568	5.675778	0.961503	0.000114
 404	4.0099e+01	8.0260	67.434297	0.000426	4.256833	0.721127	0.000085
 405	4.0198e+01	8.0469	67.523114	0.000446	4.459540	0.755467	0.000089
 406	4.0297e+01	8.0665	67.624042	0.000507	5.067659	0.858485	0.000101
 407	4.0397e+01	8.0862	67.720933	0.000486	4.864953	0.824145	0.000097
 408	4.0496e+01	8.1068	67.829936	0.000547	5.473072	0.927163	0.000110
 409	4.0596e+01	8.1271	67.894530	0.000324	3.243302	0.549430	0.000065
 410	4.0696e+01	8.1461	68.007570	0.000568	5.675778	0.961503	0.000114
 411	4.0795e+01	8.1655	68.068127	0.000304	3.040595	0.515091	0.000061
 412	4.0895e+01	8.1860	68.165018	0.000486	4.864953	0.824145	0.000097
 413	4.0994e+01	8.2059	68.229613	0.000324	3.243302	0.549430	0.000065
 414	4.1093e+01	8.2254	68.342652	0.000568	5.675778	0.961503	0.000114
 415	4.1193e+01	8.2454	68.439544	0.000486	4.864953	0.824145	0.000097
 416	4.1292e+01	8.2659	68.512212	0.000365	3.648714	0.618109	0.000073
 417	4.1392e+01	8.2861	68.649475	0.000689	6.892016	1.167539	0.000138
 418	4.1492e+01	8.3060	68.665623	0.000081	0.810825	0.137358	0.000016
 419	4.1591e+01	8.3258	68.770589	0.000527	5.270365	0.892824	0.000105
 420	4.1691e+01	8.3452	68.871517	0.000507	5.067659	0.858485	0.000101
 421	4.1790e+01	8.3659	68.968408	0.000486	4.864953	0.824145	0.000097
 422	4.1889e+01	8.3856	69.045114	0.000385	3.851421	0.652448	0.000077
 423	4.1989e+01	8.4058	69.142005	0.000486	4.864953	0.824145	0.000097
 424	4.2089e+01	8.4253	69.246971	0.000527	5.270365	0.892824	0.000105
 425	4.2188e+01	8.4454	69.351936	0.000527	5.270365	0.892824	0.000105
 426	4.2288e+01	8.4650	69.420568	0.000345	3.446008	0.583770	0.000069
 427	4.2387e+01	8.4845	69.497273	0.000385	3.851421	0.652448	0.000077
 428	4.2486e+01	8.5048	69.586090	0.000446	4.459540	0.755467	0.000089
 429	4.2586e+01	8.5254	69.715278	0.000649	6.486603	1.098860	0.000130
 430	4.2685e+01	8.5461	69.775836	0.000304	3.040595	0.515091	0.000061
 431	4.2785e+01	8.5648	69.848504	0.000365	3.648714	0.618109	0.000073
 432	4.2885e+01	8.5844	69.965581	0.000588	5.878484	0.995842	0.000118
 433	4.2984e+01	8.6048	70.078621	0.000568	5.675778	0.961503	0.000114
 434	4.3084e+01	8.6234	70.114955	0.000182	1.824357	0.309054	0.000037
 435	4.3183e+01	8.6456	70.248180	0.000669	6.689310	1.133200	0.000134
 436	4.3282e+01	8.6637	70.304700	0.000284	2.837889	0.480751	0.000057
 437	4.3382e+01	8.6841	70.361220	0.000284	2.837889	0.480751	0.000057
 438	4.3481e+01	8.7031	70.506557	0.000730	7.297429	1.236218	0.000146
 439	4.3581e+01	8.7247	70.575188	0.000345	3.446008	0.583770	0.000069
 440	4.3681e+01	8.7434	70.607485	0.000162	1.621651	0.274715	0.000032
 441	4.3780e+01	8.7639	70.740711	0.000669	6.689310	1.133200	0.000134
 442	4.3880e+01	8.7827	70.857788	0.000588	5.878484	0.995842	0.000118
 443	4.3979e+01	8.8037	70.946605	0.000446	4.459540	0.755467	0.000089
 444	4.4078e+01	8.8238	71.019273	0.000365	3.648714	0.618109	0.000073
 445	4.4178e+01	8.8428	71.100016	0.000405	4.054127	0.686788	0.000081
 446	4.4278e+01	8.8629	71.196907	0.000486	4.864953	0.824145	0.000097
 447	4.4377e+01	8.8826	71.297836	0.000507	5.067659	0.858485	0.000101
 448	4.4477e+01	8.9024	71.374541	0.000385	3.851421	0.652448	0.000077
 449	4.4576e+01	8.9230	71.451247	0.000385	3.851421	0.652448	0.000077
 450	4.4675e+01	8.9425	71.531990	0.000405	4.054127	0.686788	0.000081
 451	4.4775e+01	8.9615	71.616769	0.000426	4.256833	0.721127	0.000085
 452	4.4874e+01	8.9828	71.701549	0.000426	4.256833	0.721127	0.000085
 453	4.4974e+01	9.0018	71.794403	0.000466	4.662246	0.789806	0.000093
 454	4.5074e+01	9.0220	71.875146	0.000405	4.054127	0.686788	0.000081
 455	4.5173e+01	9.0418	71.943777	0.000345	3.446008	0.583770	0.000069
 456	4.5273e+01	9.0619	72.056817	0.000568	5.675778	0.961503	0.000114
 457	4.5372e+01	9.0815	72.081040	0.000122	1.216238	0.206036	0.000024
 458	4.5471e+01	9.1016	72.238488	0.000791	7.905548	1.339236	0.000158
 459	4.5571e+01	9.1223	72.311157	0.000365	3.648714	0.618109	0.000073
 460	4.5670e+01	9.1418	72.371714	0.000304	3.040595	0.515091	0.000061
 461	4.5770e+01	9.1605	72.468605	0.000486	4.864953	0.824145	0.000097
 462	4.5870e+01	9.1804	72.541274	0.000365	3.648714	0.618109	0.000073
 463	4.5969e+01	9.2017	72.630090	0.000446	4.459540	0.755467	0.000089
 464	4.6069e+01	9.2221	72.682573	0.000264	2.635183	0.446412	0.000053
 465	4.6168e+01	9.2416	72.775427	0.000466	4.662246	0.789806	0.000093
 466	4.6267e+01	9.2612	72.860207	0.000426	4.256833	0.721127	0.000085
 467	4.6367e+01	9.2815	72.916727	0.000284	2.837889	0.480751	0.000057
 468	4.6467e+01	9.3018	73.062064	0.000730	7.297429	1.236218	0.000146
 469	4.6566e+01	9.3213	73.126658	0.000324	3.243302	0.549430	0.000065
 470	4.6666e+01	9.3396	73.219512	0.000466	4.662246	0.789806	0.000093
 471	4.6765e+01	9.3610	73.280069	0.000304	3.040595	0.515091	0.000061
 472	4.6864e+01	9.3799	73.352738	0.000365	3.648714	0.618109	0.000073
 473	4.6964e+01	9.4003	73.449629	0.000486	4.864953	0.824145	0.000097
 474	4.7063e+01	9.4202	73.510186	0.000304	3.040595	0.515091	0.000061
 475	4.7163e+01	9.4410	73.570743	0.000304	3.040595	0.515091	0.000061
 476	4.7263e+01	9.4589	73.683783	0.000568	5.675778	0.961503	0.000114
 477	4.7362e+01	9.4804	73.760489	0.000385	3.851421	0.652448	0.000077
 478	4.7462e+01	9.5002	73.833157	0.000365	3.648714	0.618109	0.000073
 479	4.7561e+01	9.5205	73.926011	0.000466	4.662246	0.789806	0.000093
 480	4.7660e+01	9.5398	74.014828	0.000446	4.459540	0.755467	0.000089
 481	4.7760e+01	9.5589	74.083459	0.000345	3.446008	0.583770	0.000069
 482	4.7859e+01	9.5801	74.168239	0.000426	4.256833	0.721127	0.000085
 483	4.7959e+01	9.5998	74.240908	0.000365	3.648714	0.618109	0.000073
 484	4.8059e+01	9.6182	74.341836	0.000507	5.067659	0.858485	0.000101
 485	4.8158e+01	9.6394	74.446802	0.000527	5.270365	0.892824	0.000105
 486	4.8258e+01	9.6588	74.491210	0.000223	2.229770	0.377733	0.000045
 487	4.8357e+01	9.6796	74.580027	0.000446	4.459540	0.755467	0.000089
 488	4.8456e+01	9.6997	74.652695	0.000365	3.648714	0.618109	0.000073
 489	4.8556e+01	9.7182	74.753624	0.000507	5.067659	0.858485	0.000101
 490	4.8656e+01	9.7395	74.798032	0.000223	2.229770	0.377733	0.000045
 491	4.8755e+01	9.7584	74.927221	0.000649	6.486603	1.098860	0.000130
 492	4.8855e+01	9.7778	74.987778	0.000304	3.040595	0.515091	0.000061
 493	4.8954e+01	9.7988	75.064483	0.000385	3.851421	0.652448	0.000077
 494	4.9053e+01	9.8181	75.165412	0.000507	5.067659	0.858485	0.000101
 495	4.9153e+01	9.8376	75.238080	0.000365	3.648714	0.618109	0.000073
 496	4.9252e+01	9.8584	75.343046	0.000527	5.270365	0.892824	0.000105
 497	4.9352e+01	9.8794	75.395528	0.000264	2.635183	0.446412	0.000053
 498	4.9452e+01	9.9001	75.500494	0.000527	5.270365	0.892824	0.000105
 499	4.9551e+01	9.9183	75.569125	0.000345	3.446008	0.583770	0.000069
 500	4.9651e+01	9.9380	75.645831	0.000385	3.851421	0.652448	0.000077
 501	4.9750e+01	9.9580	75.754834	0.000547	5.473072	0.927163	0.000110
 502	4.9849e+01	9.9770	75.827502	0.000365	3.648714	0.618109	0.000073
 503	4.9949e+01	9.9970	75.892096	0.000324	3.243302	0.549430	0.000065
 504	5.0048e+01	9.9775	75.823465	0.000345	3.446008	0.583770	-0.000069
 505	5.0148e+01	9.9581	75.803279	0.000101	1.013532	0.171697	-0.000020
 506	5.0248e+01	9.9384	75.730611	0.000365	3.648714	0.618109	-0.000073
 507	5.0347e+01	9.9180	75.690239	0.000203	2.027064	0.343394	-0.000041
 508	5.0447e+01	9.8978	75.609497	0.000405	4.054127	0.686788	-0.000081
 509	5.0546e+01	9.8780	75.577200	0.000162	1.621651	0.274715	-0.000032
 510	5.0645e+01	9.8584	75.508568	0.000345	3.446008	0.583770	-0.000069
 511	5.0745e+01	9.8389	75.431863	0.000385	3.851421	0.652448	-0.000077
 512	5.0844e+01	9.8194	75.387454	0.000223	2.229770	0.377733	-0.000045
 513	5.0944e+01	9.7989	75.334971	0.000264	2.635183	0.446412	-0.000053
 514	5.1044e+01	9.7784	75.262303	0.000365	3.648714	0.618109	-0.000073
 515	5.1143e+01	9.7599	75.230006	0.000162	1.621651	0.274715	-0.000032
 516	5.1242e+01	9.7378	75.125040	0.000527	5.270365	0.892824	-0.000105
 517	5.1342e+01	9.7182	75.076595	0.000243	2.432476	0.412073	-0.000049
 518	5.1441e+01	9.6997	74.971629	0.000527	5.270365	0.892824	-0.000105
 519	5.1541e+01	9.6786	74.919146	0.000264	2.635183	0.446412	-0.000053
 520	5.1641e+01	9.6584	74.915109	0.000020	0.202706	0.034339	-0.000004
 521	5.1740e+01	9.6387	74.814181	0.000507	5.067659	0.858485	-0.000101
 522	5.1840e+01	9.6192	74.737475	0.000385	3.851421	0.652448	-0.000077
 523	5.1939e+01	9.6000	74.668844	0.000345	3.446008	0.583770	-0.000069
 524	5.2038e+01	9.5801	74.612324	0.000284	2.837889	0.480751	-0.000057
 525	5.2138e+01	9.5605	74.519470	0.000466	4.662246	0.789806	-0.000093
 526	5.2237e+01	9.5402	74.527544	-0.000041	-0.405413	-0.068679	0.000008
 527	5.2337e+01	9.5193	74.450839	0.000385	3.851421	0.652448	-0.000077
 528	5.2437e+01	9.5001	74.349910	0.000507	5.067659	0.858485	-0.000101
 529	5.2536e+01	9.4800	74.305502	0.000223	2.229770	0.377733	-0.000045
 530	5.2636e+01	9.4604	74.208611	0.000486	4.864953	0.824145	-0.000097
 531	5.2735e+01	9.4409	74.168239	0.000203	2.027064	0.343394	-0.000041
 532	5.2834e+01	9.4202	74.087496	0.000405	4.054127	0.686788	-0.000081
 533	5.2934e+01	9.4003	74.022902	0.000324	3.243302	0.549430	-0.000065
 534	5.3033e+01	9.3811	73.970420	0.000264	2.635183	0.446412	-0.000053
 535	5.3133e+01	9.3604	73.905825	0.000324	3.243302	0.549430	-0.000065
 536	5.3233e+01	9.3414	73.837194	0.000345	3.446008	0.583770	-0.000069
 537	5.3332e+01	9.3214	73.744340	0.000466	4.662246	0.789806	-0.000093
 538	5.3431e+01	9.3020	73.724154	0.000101	1.013532	0.171697	-0.000020
 539	5.3531e+01	9.2811	73.659560	0.000324	3.243302	0.549430	-0.000065
 540	5.3630e+01	9.2607	73.615152	0.000223	2.229770	0.377733	-0.000045
 541	5.3730e+01	9.2407	73.534409	0.000405	4.054127	0.686788	-0.000081
 542	5.3830e+01	9.2208	73.433481	0.000507	5.067659	0.858485	-0.000101
 543	5.3929e+01	9.2012	73.352738	0.000405	4.054127	0.686788	-0.000081
 544	5.4029e+01	9.1817	73.280069	0.000365	3.648714	0.618109	-0.000073
 545	5.4128e+01	9.1615	73.243735	0.000182	1.824357	0.309054	-0.000037
 546	5.4227e+01	9.1412	73.158955	0.000426	4.256833	0.721127	-0.000085
 547	5.4327e+01	9.1223	73.094361	0.000324	3.243302	0.549430	-0.000065
 548	5.4426e+01	9.1025	73.037841	0.000284	2.837889	0.480751	-0.000057
 549	5.4526e+01	9.0829	72.993433	0.000223	2.229770	0.377733	-0.000045
 550	5.4626e+01	9.0613	72.868282	0.000628	6.283897	1.064521	-0.000126
 551	5.4725e+01	9.0418	72.840022	0.000142	1.418944	0.240376	-0.000028
 552	5.4825e+01	9.0220	72.783502	0.000284	2.837889	0.480751	-0.000057
 553	5.4924e+01	9.0024	72.722945	0.000304	3.040595	0.515091	-0.000061
 554	5.5023e+01	8.9816	72.654313	0.000345	3.446008	0.583770	-0.000069
 555	5.5123e+01	8.9619	72.553385	0.000507	5.067659	0.858485	-0.000101
 556	5.5222e+01	8.9420	72.496865	0.000284	2.837889	0.480751	-0.000057
 557	5.5322e+01	8.9227	72.412085	0.000426	4.256833	0.721127	-0.000085
 558	5.5422e+01	8.9032	72.363640	0.000243	2.432476	0.412073	-0.000049
 559	5.5521e+01	8.8825	72.278860	0.000426	4.256833	0.721127	-0.000085
 560	5.5620e+01	8.8629	72.226377	0.000264	2.635183	0.446412	-0.000053
 561	5.5720e+01	8.8432	72.153708	0.000365	3.648714	0.618109	-0.000073
 562	5.5819e+01	8.8234	72.081040	0.000365	3.648714	0.618109	-0.000073
 563	5.5919e+01	8.8037	71.996260	0.000426	4.256833	0.721127	-0.000085
 564	5.6019e+01	8.7833	71.955889	0.000203	2.027064	0.343394	-0.000041
 565	5.6118e+01	8.7646	71.895332	0.000304	3.040595	0.515091	-0.000061
 566	5.6218e+01	8.7432	71.814589	0.000405	4.054127	0.686788	-0.000081
 567	5.6317e+01	8.7247	71.733846	0.000405	4.054127	0.686788	-0.000081
 568	5.6416e+01	8.7044	71.673289	0.000304	3.040595	0.515091	-0.000061
 569	5.6516e+01	8.6847	71.612732	0.000304	3.040595	0.515091	-0.000061
 570	5.6615e+01	8.6644	71.556212	0.000284	2.837889	0.480751	-0.000057
 571	5.6715e+01	8.6451	71.455284	0.000507	5.067659	0.858485	-0.000101
 572	5.6815e+01	8.6247	71.406838	0.000243	2.432476	0.412073	-0.000049
 573	5.6914e+01	8.6036	71.330133	0.000385	3.851421	0.652448	-0.000077
 574	5.7014e+01	8.5850	71.249390	0.000405	4.054127	0.686788	-0.000081
 575	5.7113e+01	8.5650	71.176722	0.000365	3.648714	0.618109	-0.000073
 576	5.7212e+01	8.5449	71.136350	0.000203	2.027064	0.343394	-0.000041
 577	5.7312e+01	8.5263	71.051570	0.000426	4.256833	0.721127	-0.000085
 578	5.7411e+01	8.5050	70.954679	0.000486	4.864953	0.824145	-0.000097
 579	5.7511e+01	8.4847	70.914308	0.000203	2.027064	0.343394	-0.000041
 580	5.7611e+01	8.4647	70.833565	0.000405	4.054127	0.686788	-0.000081
 581	5.7710e+01	8.4449	70.736674	0.000486	4.864953	0.824145	-0.000097
 582	5.7809e+01	8.4256	70.684191	0.000264	2.635183	0.446412	-0.000053
 583	5.7909e+01	8.4054	70.611523	0.000365	3.648714	0.618109	-0.000073
 584	5.8008e+01	8.3864	70.530780	0.000405	4.054127	0.686788	-0.000081
 585	5.8108e+01	8.3659	70.490409	0.000203	2.027064	0.343394	-0.000041
 586	5.8208e+01	8.3459	70.385443	0.000527	5.270365	0.892824	-0.000105
 587	5.8307e+01	8.3258	70.280477	0.000527	5.270365	0.892824	-0.000105
 588	5.8407e+01	8.3058	70.248180	0.000162	1.621651	0.274715	-0.000032
 589	5.8506e+01	8.2861	70.139178	0.000547	5.473072	0.927163	-0.000110
 590	5.8605e+01	8.2652	70.106881	0.000162	1.621651	0.274715	-0.000032
 591	5.8705e+01	8.2459	70.026138	0.000405	4.054127	0.686788	-0.000081
 592	5.8804e+01	8.2258	69.929247	0.000486	4.864953	0.824145	-0.000097
 593	5.8904e+01	8.2059	69.905024	0.000122	1.216238	0.206036	-0.000024
 594	5.9004e+01	8.1860	69.783910	0.000608	6.081191	1.030182	-0.000122
 595	5.9103e+01	8.1670	69.719316	0.000324	3.243302	0.549430	-0.000065
 596	5.9203e+01	8.1470	69.638573	0.000405	4.054127	0.686788	-0.000081
 597	5.9302e+01	8.1264	69.606276	0.000162	1.621651	0.274715	-0.000032
 598	5.9401e+01	8.1060	69.505347	0.000507	5.067659	0.858485	-0.000101
 599	5.9501e+01	8.0871	69.448828	0.000284	2.837889	0.480751	-0.000057
 600	5.9600e+01	8.0653	69.372122	0.000385	3.851421	0.652448	-0.000077
 601	5.9700e+01	8.0471	69.267156	0.000527	5.270365	0.892824	-0.000105
 602	5.9800e+01	8.0283	69.198525	0.000345	3.446008	0.583770	-0.000069
 603	5.9899e+01	8.0066	69.158154	0.000203	2.027064	0.343394	-0.000041
 604	5.9998e+01	7.9868	69.057225	0.000507	5.067659	0.858485	-0.000101
 605	6.0098e+01	7.9668	68.988594	0.000345	3.446008	0.583770	-0.000069
 606	6.0197e+01	7.9472	68.911888	0.000385	3.851421	0.652448	-0.000077
 607	6.0297e+01	7.9276	68.859406	0.000264	2.635183	0.446412	-0.000053
 608	6.0397e+01	7.9072	68.798849	0.000304	3.040595	0.515091	-0.000061
 609	6.0496e+01	7.8881	68.734255	0.000324	3.243302	0.549430	-0.000065
 610	6.0596e+01	7.8684	68.645438	0.000446	4.459540	0.755467	-0.000089
 611	6.0695e+01	7.8475	68.520286	0.000628	6.283897	1.064521	-0.000126
 612	6.0794e+01	7.8266	68.435506	0.000426	4.256833	0.721127	-0.000085
 613	6.0894e+01	7.8087	68.411284	0.000122	1.216238	0.206036	-0.000024
 614	6.0993e+01	7.7877	68.278058	0.000669	6.689310	1.133200	-0.000134
 615	6.1093e+01	7.7676	68.241724	0.000182	1.824357	0.309054	-0.000037
 616	6.1193e+01	7.7489	68.156944	0.000426	4.256833	0.721127	-0.000085
 617	6.1292e+01	7.7282	68.072164	0.000426	4.256833	0.721127	-0.000085
 618	6.1392e+01	7.7083	67.991422	0.000405	4.054127	0.686788	-0.000081
 619	6.1491e+01	7.6884	67.934902	0.000284	2.837889	0.480751	-0.000057
 620	6.1590e+01	7.6688	67.781490	0.000770	7.702842	1.304897	-0.000154
 621	6.1690e+01	7.6485	67.745156	0.000182	1.824357	0.309054	-0.000037
 622	6.1789e+01	7.6276	67.668451	0.000385	3.851421	0.652448	-0.000077
 623	6.1889e+01	7.6087	67.611931	0.000284	2.837889	0.480751	-0.000057
 624	6.1989e+01	7.5883	67.531188	0.000405	4.054127	0.686788	-0.000081
 625	6.2088e+01	7.5693	67.426223	0.000527	5.270365	0.892824	-0.000105
 626	6.2188e+01	7.5476	67.337406	0.000446	4.459540	0.755467	-0.000089
 627	6.2287e+01	7.5279	67.284923	0.000264	2.635183	0.446412	-0.000053
 628	6.2386e+01	7.5091	67.212254	0.000365	3.648714	0.618109	-0.000073
 629	6.2486e+01	7.4899	67.127474	0.000426	4.256833	0.721127	-0.000085
 630	6.2586e+01	7.4693	67.010398	0.000588	5.878484	0.995842	-0.000118
 631	6.2685e+01	7.4497	66.953878	0.000284	2.837889	0.480751	-0.000057
 632	6.2785e+01	7.4300	66.856986	0.000486	4.864953	0.824145	-0.000097
 633	6.2884e+01	7.4097	66.812578	0.000223	2.229770	0.377733	-0.000045
 634	6.2983e+01	7.3900	66.679352	0.000669	6.689310	1.133200	-0.000134
 635	6.3083e+01	7.3698	66.638981	0.000203	2.027064	0.343394	-0.000041
 636	6.3182e+01	7.3498	66.578424	0.000304	3.040595	0.515091	-0.000061
 637	6.3282e+01	7.3304	66.469421	0.000547	5.473072	0.927163	-0.000110
 638	6.3382e+01	7.3090	66.332159	0.000689	6.892016	1.167539	-0.000138
 639	6.3481e+01	7.2904	66.275639	0.000284	2.837889	0.480751	-0.000057
 640	6.3581e+01	7.2706	66.223156	0.000264	2.635183	0.446412	-0.000053
 641	6.3680e+01	7.2507	66.150488	0.000365	3.648714	0.618109	-0.000073
 642	6.3779e+01	7.2298	66.041485	0.000547	5.473072	0.927163	-0.000110
 643	6.3879e+01	7.2095	65.968817	0.000365	3.648714	0.618109	-0.000073
 644	6.3978e+01	7.1912	65.863851	0.000527	5.270365	0.892824	-0.000105
 645	6.4078e+01	7.1695	65.783108	0.000405	4.054127	0.686788	-0.000081
 646	6.4177e+01	7.1501	65.718514	0.000324	3.243302	0.549430	-0.000065
 647	6.4277e+01	7.1310	65.666031	0.000264	2.635183	0.446412	-0.000053
 648	6.4376e+01	7.1116	65.544917	0.000608	6.081191	1.030182	-0.000122
 649	6.4476e+01	7.0908	65.443989	0.000507	5.067659	0.858485	-0.000101
 650	6.4576e+01	7.0700	65.379395	0.000324	3.243302	0.549430	-0.000065
 651	6.4675e+01	7.0504	65.278466	0.000507	5.067659	0.858485	-0.000101
 652	6.4775e+01	7.0309	65.230021	0.000243	2.432476	0.412073	-0.000049
 653	6.4874e+01	7.0107	65.149278	0.000405	4.054127	0.686788	-0.000081
 654	6.4974e+01	6.9908	65.060461	0.000446	4.459540	0.755467	-0.000089
 655	6.5073e+01	6.9720	64.963570	0.000486	4.864953	0.824145	-0.000097
 656	6.5172e+01	6.9515	64.882827	0.000405	4.054127	0.686788	-0.000081
 657	6.5272e+01	6.9317	64.802084	0.000405	4.054127	0.686788	-0.000081
 658	6.5371e+01	6.9121	64.705193	0.000486	4.864953	0.824145	-0.000097
 659	6.5471e+01	6.8913	64.640599	0.000324	3.243302	0.549430	-0.000065
 660	6.5570e+01	6.8712	64.547745	0.000466	4.662246	0.789806	-0.000093
 661	6.5670e+01	6.8520	64.467002	0.000405	4.054127	0.686788	-0.000081
 662	6.5769e+01	6.8311	64.374148	0.000466	4.662246	0.789806	-0.000093
 663	6.5869e+01	6.8127	64.325702	0.000243	2.432476	0.412073	-0.000049
 664	6.5969e+01	6.7920	64.208625	0.000588	5.878484	0.995842	-0.000118
 665	6.6068e+01	6.7727	64.095586	0.000568	5.675778	0.961503	-0.000114
 666	6.6168e+01	6.7516	64.022917	0.000365	3.648714	0.618109	-0.000073
 667	6.6267e+01	6.7326	63.966397	0.000284	2.837889	0.480751	-0.000057
 668	6.6367e+01	6.7117	63.841246	0.000628	6.283897	1.064521	-0.000126
 669	6.6466e+01	6.6923	63.768578	0.000365	3.648714	0.618109	-0.000073
 670	6.6566e+01	6.6729	63.703983	0.000324	3.243302	0.549430	-0.000065
 671	6.6665e+01	6.6529	63.643426	0.000304	3.040595	0.515091	-0.000061
 672	6.6764e+01	6.6331	63.506164	0.000689	6.892016	1.167539	-0.000138
 673	6.6864e+01	6.6131	63.453681	0.000264	2.635183	0.446412	-0.000053
 674	6.6963e+01	6.5929	63.381013	0.000365	3.648714	0.618109	-0.000073
 675	6.7063e+01	6.5725	63.272010	0.000547	5.473072	0.927163	-0.000110
 676	6.7162e+01	6.5536	63.199341	0.000365	3.648714	0.618109	-0.000073
 677	6.7262e+01	6.5327	63.102450	0.000486	4.864953	0.824145	-0.000097
 678	6.7362e+01	6.5131	63.033819	0.000345	3.446008	0.583770	-0.000069
 679	6.7461e+01	6.4936	62.961150	0.000365	3.648714	0.618109	-0.000073
 680	6.7561e+01	6.4727	62.868296	0.000466	4.662246	0.789806	-0.000093
 681	6.7660e+01	6.4535	62.779479	0.000446	4.459540	0.755467	-0.000089
 682	6.7760e+01	6.4339	62.698737	0.000405	4.054127	0.686788	-0.000081
 683	6.7859e+01	6.4125	62.589734	0.000547	5.473072	0.927163	-0.000110
 684	6.7959e+01	6.3932	62.500917	0.000446	4.459540	0.755467	-0.000089
 685	6.8058e+01	6.3735	62.440360	0.000304	3.040595	0.515091	-0.000061
 686	6.8157e+01	6.3529	62.343469	0.000486	4.864953	0.824145	-0.000097
 687	6.8257e+01	6.3342	62.242540	0.000507	5.067659	0.858485	-0.000101
 688	6.8356e+01	6.3137	62.157760	0.000426	4.256833	0.721127	-0.000085
 689	6.8456e+01	6.2953	62.052795	0.000527	5.270365	0.892824	-0.000105
 690	6.8555e+01	6.2744	61.947829	0.000527	5.270365	0.892824	-0.000105
 691	6.8655e+01	6.2550	61.903421	0.000223	2.229770	0.377733	-0.000045
 692	6.8754e+01	6.2354	61.794418	0.000547	5.473072	0.927163	-0.000110
 693	6.8854e+01	6.2147	61.709638	0.000426	4.256833	0.721127	-0.000085
 694	6.8954e+01	6.1941	61.645044	0.000324	3.243302	0.549430	-0.000065
 695	6.9053e+01	6.1739	61.519893	0.000628	6.283897	1.064521	-0.000126
 696	6.9153e+01	6.1553	61.467410	0.000264	2.635183	0.446412	-0.000053
 697	6.9252e+01	6.1358	61.394742	0.000365	3.648714	0.618109	-0.000073
 698	6.9352e+01	6.1160	61.269591	0.000628	6.283897	1.064521	-0.000126
 699	6.9451e+01	6.0951	61.164625	0.000527	5.270365	0.892824	-0.000105
 700	6.9550e+01	6.0760	61.116179	0.000243	2.432476	0.412073	-0.000049
 701	6.9650e+01	6.0554	61.019288	0.000486	4.864953	0.824145	-0.000097
 702	6.9749e+01	6.0346	60.894137	0.000628	6.283897	1.064521	-0.000126
 703	6.9849e+01	6.0146	60.837617	0.000284	2.837889	0.480751	-0.000057
 704	6.9948e+01	5.9966	60.732651	0.000527	5.270365	0.892824	-0.000105
 705	7.0048e+01	5.9751	60.651909	0.000405	4.054127	0.686788	-0.000081
 706	7.0147e+01	5.9556	60.595389	0.000284	2.837889	0.480751	-0.000057
 707	7.0247e+01	5.9353	60.514646	0.000405	4.054127	0.686788	-0.000081
 708	7.0347e+01	5.9164	60.397569	0.000588	5.878484	0.995842	-0.000118
 709	7.0446e+01	5.8965	60.341049	0.000284	2.837889	0.480751	-0.000057
 710	7.0546e+01	5.8755	60.215898	0.000628	6.283897	1.064521	-0.000126
 711	7.0645e+01	5.8550	60.155341	0.000304	3.040595	0.515091	-0.000061
 712	7.0745e+01	5.8366	60.090747	0.000324	3.243302	0.549430	-0.000065
 713	7.0844e+01	5.8161	59.985781	0.000527	5.270365	0.892824	-0.000105
 714	7.0944e+01	5.7957	59.929261	0.000284	2.837889	0.480751	-0.000057
 715	7.1043e+01	5.7768	59.816222	0.000568	5.675778	0.961503	-0.000114
 716	7.1142e+01	5.7565	59.711256	0.000527	5.270365	0.892824	-0.000105
 717	7.1242e+01	5.7355	59.618402	0.000466	4.662246	0.789806	-0.000093
 718	7.1341e+01	5.7172	59.582068	0.000182	1.824357	0.309054	-0.000037
 719	7.1441e+01	5.6963	59.481139	0.000507	5.067659	0.858485	-0.000101
 720	7.1540e+01	5.6763	59.364062	0.000588	5.878484	0.995842	-0.000118
 721	7.1640e+01	5.6567	59.275245	0.000446	4.459540	0.755467	-0.000089
 722	7.1740e+01	5.6373	59.194503	0.000405	4.054127	0.686788	-0.000081
 723	7.1839e+01	5.6174	59.117797	0.000385	3.851421	0.652448	-0.000077
 724	7.1939e+01	5.5970	59.061277	0.000284	2.837889	0.480751	-0.000057
 725	7.2038e+01	5.5770	58.932089	0.000649	6.486603	1.098860	-0.000130
 726	7.2138e+01	5.5571	58.863458	0.000345	3.446008	0.583770	-0.000069
 727	7.2237e+01	5.5373	58.746381	0.000588	5.878484	0.995842	-0.000118
 728	7.2337e+01	5.5165	58.677749	0.000345	3.446008	0.583770	-0.000069
 729	7.2436e+01	5.4971	58.609118	0.000345	3.446008	0.583770	-0.000069
 730	7.2535e+01	5.4775	58.508190	0.000507	5.067659	0.858485	-0.000101
 731	7.2635e+01	5.4583	58.419373	0.000446	4.459540	0.755467	-0.000089
 732	7.2734e+01	5.4366	58.298259	0.000608	6.081191	1.030182	-0.000122
 733	7.2834e+01	5.4176	58.233664	0.000324	3.243302	0.549430	-0.000065
 734	7.2933e+01	5.3980	58.120625	0.000568	5.675778	0.961503	-0.000114
 735	7.3033e+01	5.3783	58.056030	0.000324	3.243302	0.549430	-0.000065
 736	7.3132e+01	5.3587	57.967213	0.000446	4.459540	0.755467	-0.000089
 737	7.3232e+01	5.3384	57.870322	0.000486	4.864953	0.824145	-0.000097
 738	7.3332e+01	5.3183	57.737097	0.000669	6.689310	1.133200	-0.000134
 739	7.3431e+01	5.2981	57.688651	0.000243	2.432476	0.412073	-0.000049
 740	7.3531e+01	5.2775	57.583686	0.000527	5.270365	0.892824	-0.000105
 741	7.3630e+01	5.2578	57.470646	0.000568	5.675778	0.961503	-0.000114
 742	7.3730e+01	5.2389	57.410089	0.000304	3.040595	0.515091	-0.000061
 743	7.3829e+01	5.2190	57.309160	0.000507	5.067659	0.858485	-0.000101
 744	7.3928e+01	5.1989	57.208232	0.000507	5.067659	0.858485	-0.000101
 745	7.4028e+01	5.1775	57.139601	0.000345	3.446008	0.583770	-0.000069
 746	7.4127e+01	5.1594	57.038672	0.000507	5.067659	0.858485	-0.000101
 747	7.4227e+01	5.1392	56.949855	0.000446	4.459540	0.755467	-0.000089
 748	7.4326e+01	5.1187	56.836815	0.000568	5.675778	0.961503	-0.000114
 749	7.4426e+01	5.0994	56.747999	0.000446	4.459540	0.755467	-0.000089
 750	7.4525e+01	5.0790	56.667256	0.000405	4.054127	0.686788	-0.000081
 751	7.4625e+01	5.0586	56.582476	0.000426	4.256833	0.721127	-0.000085
 752	7.4725e+01	5.0390	56.497696	0.000426	4.256833	0.721127	-0.000085
 753	7.4824e+01	5.0199	56.388693	0.000547	5.473072	0.927163	-0.000110
 754	7.4924e+01	4.9992	56.307951	0.000405	4.054127	0.686788	-0.000081
 755	7.5023e+01	4.9795	56.211059	0.000486	4.864953	0.824145	-0.000097
 756	7.5123e+01	4.9602	56.093983	0.000588	5.878484	0.995842	-0.000118
 757	7.5222e+01	4.9406	56.025351	0.000345	3.446008	0.583770	-0.000069
 758	7.5322e+01	4.9199	55.928460	0.000486	4.864953	0.824145	-0.000097
 759	7.5421e+01	4.9001	55.795234	0.000669	6.689310	1.133200	-0.000134
 760	7.5520e+01	4.8792	55.771012	0.000122	1.216238	0.206036	-0.000024
 761	7.5620e+01	4.8602	55.653935	0.000588	5.878484	0.995842	-0.000118
 762	7.5719e+01	4.8402	55.540895	0.000568	5.675778	0.961503	-0.000114
 763	7.5819e+01	4.8203	55.448041	0.000466	4.662246	0.789806	-0.000093
 764	7.5918e+01	4.7998	55.367298	0.000405	4.054127	0.686788	-0.000081
 765	7.6018e+01	4.7802	55.246184	0.000608	6.081191	1.030182	-0.000122
 766	7.6118e+01	4.7608	55.165441	0.000405	4.054127	0.686788	-0.000081
 767	7.6217e+01	4.7396	55.060476	0.000527	5.270365	0.892824	-0.000105
 768	7.6317e+01	4.7207	54.979733	0.000405	4.054127	0.686788	-0.000081
 769	7.6416e+01	4.7012	54.886879	0.000466	4.662246	0.789806	-0.000093
 770	7.6516e+01	4.6812	54.818248	0.000345	3.446008	0.583770	-0.000069
 771	7.6615e+01	4.6615	54.729431	0.000446	4.459540	0.755467	-0.000089
 772	7.6715e+01	4.6413	54.624465	0.000527	5.270365	0.892824	-0.000105
 773	7.6814e+01	4.6214	54.507388	0.000588	5.878484	0.995842	-0.000118
 774	7.6913e+01	4.6010	54.402423	0.000527	5.270365	0.892824	-0.000105
 775	7.7013e+01	4.5822	54.293420	0.000547	5.473072	0.927163	-0.000110
 776	7.7112e+01	4.5611	54.236900	0.000284	2.837889	0.480751	-0.000057
 777	7.7212e+01	4.5415	54.111749	0.000628	6.283897	1.064521	-0.000126
 778	7.7311e+01	4.5214	54.047155	0.000324	3.243302	0.549430	-0.000065
 779	7.7411e+01	4.5007	53.917966	0.000649	6.486603	1.098860	-0.000130
 780	7.7510e+01	4.4819	53.813001	0.000527	5.270365	0.892824	-0.000105
 781	7.7610e+01	4.4606	53.724184	0.000446	4.459540	0.755467	-0.000089
 782	7.7710e+01	4.4423	53.643441	0.000405	4.054127	0.686788	-0.000081
 783	7.7809e+01	4.4218	53.562698	0.000405	4.054127	0.686788	-0.000081
 784	7.7909e+01	4.4019	53.449659	0.000568	5.675778	0.961503	-0.000114
 785	7.8008e+01	4.3824	53.352767	0.000486	4.864953	0.824145	-0.000097
 786	7.8108e+01	4.3613	53.247802	0.000527	5.270365	0.892824	-0.000105
 787	7.8207e+01	4.3430	53.118613	0.000649	6.486603	1.098860	-0.000130
 788	7.8306e+01	4.3218	53.082279	0.000182	1.824357	0.309054	-0.000037
 789	7.8406e+01	4.3030	52.932905	0.000750	7.500135	1.270557	-0.000150
 790	7.8505e+01	4.2821	52.852163	0.000405	4.054127	0.686788	-0.000081
 791	7.8605e+01	4.2626	52.775457	0.000385	3.851421	0.652448	-0.000077
 792	7.8704e+01	4.2425	52.662417	0.000568	5.675778	0.961503	-0.000114
 793	7.8804e+01	4.2229	52.573600	0.000446	4.459540	0.755467	-0.000089
 794	7.8903e+01	4.2032	52.448449	0.000628	6.283897	1.064521	-0.000126
 795	7.9003e+01	4.1826	52.323298	0.000628	6.283897	1.064521	-0.000126
 796	7.9103e+01	4.1628	52.242555	0.000405	4.054127	0.686788	-0.000081
 797	7.9202e+01	4.1433	52.141627	0.000507	5.067659	0.858485	-0.000101
 798	7.9302e+01	4.1230	52.032624	0.000547	5.473072	0.927163	-0.000110
 799	7.9401e+01	4.1029	51.931696	0.000507	5.067659	0.858485	-0.000101
 800	7.9501e+01	4.0832	51.854990	0.000385	3.851421	0.652448	-0.000077
 801	7.9600e+01	4.0642	51.770210	0.000426	4.256833	0.721127	-0.000085
 802	7.9700e+01	4.0434	51.636985	0.000669	6.689310	1.133200	-0.000134
 803	7.9799e+01	4.0239	51.536056	0.000507	5.067659	0.858485	-0.000101
 804	7.9898e+01	4.0027	51.463388	0.000365	3.648714	0.618109	-0.000073
 805	7.9998e+01	3.9834	51.334199	0.000649	6.486603	1.098860	-0.000130
 806	8.0097e+01	3.9643	51.217123	0.000588	5.878484	0.995842	-0.000118
 807	8.0197e+01	3.9438	51.108120	0.000547	5.473072	0.927163	-0.000110
 808	8.0296e+01	3.9239	51.047563	0.000304	3.040595	0.515091	-0.000061
 809	8.0396e+01	3.9044	50.910300	0.000689	6.892016	1.167539	-0.000138
 810	8.0496e+01	3.8836	50.809372	0.000507	5.067659	0.858485	-0.000101
 811	8.0595e+01	3.8634	50.688258	0.000608	6.081191	1.030182	-0.000122
 812	8.0695e+01	3.8436	50.571181	0.000588	5.878484	0.995842	-0.000118
 813	8.0794e+01	3.8245	50.482364	0.000446	4.459540	0.755467	-0.000089
 814	8.0894e+01	3.8046	50.389510	0.000466	4.662246	0.789806	-0.000093
 815	8.0993e+01	3.7845	50.296656	0.000466	4.662246	0.789806	-0.000093
 816	8.1093e+01	3.7647	50.195727	0.000507	5.067659	0.858485	-0.000101
 817	8.1192e+01	3.7455	50.070576	0.000628	6.283897	1.064521	-0.000126
 818	8.1291e+01	3.7249	49.945425	0.000628	6.283897	1.064521	-0.000126
 819	8.1391e+01	3.7045	49.868719	0.000385	3.851421	0.652448	-0.000077
 820	8.1490e+01	3.6851	49.796051	0.000365	3.648714	0.618109	-0.000073
 821	8.1590e+01	3.6651	49.658788	0.000689	6.892016	1.167539	-0.000138
 822	8.1689e+01	3.6445	49.557860	0.000507	5.067659	0.858485	-0.000101
 823	8.1789e+01	3.6263	49.465006	0.000466	4.662246	0.789806	-0.000093
 824	8.1888e+01	3.6049	49.360040	0.000527	5.270365	0.892824	-0.000105
 825	8.1988e+01	3.5857	49.259112	0.000507	5.067659	0.858485	-0.000101
 826	8.2088e+01	3.5652	49.125886	0.000669	6.689310	1.133200	-0.000134
 827	8.2187e+01	3.5453	49.033032	0.000466	4.662246	0.789806	-0.000093
 828	8.2287e+01	3.5255	48.960364	0.000365	3.648714	0.618109	-0.000073
 829	8.2386e+01	3.5049	48.810990	0.000750	7.500135	1.270557	-0.000150
 830	8.2486e+01	3.4858	48.730247	0.000405	4.054127	0.686788	-0.000081
 831	8.2585e+01	3.4656	48.613170	0.000588	5.878484	0.995842	-0.000118
 832	8.2684e+01	3.4464	48.520316	0.000466	4.662246	0.789806	-0.000093
 833	8.2784e+01	3.4258	48.403239	0.000588	5.878484	0.995842	-0.000118
 834	8.2883e+01	3.4055	48.310385	0.000466	4.662246	0.789806	-0.000093
 835	8.2983e+01	3.3870	48.229642	0.000405	4.054127	0.686788	-0.000081
 836	8.3082e+01	3.3660	48.124677	0.000527	5.270365	0.892824	-0.000105
 837	8.3182e+01	3.3459	47.991451	0.000669	6.689310	1.133200	-0.000134
 838	8.3281e+01	3.3262	47.882448	0.000547	5.473072	0.927163	-0.000110
 839	8.3381e+01	3.3071	47.745186	0.000689	6.892016	1.167539	-0.000138
 840	8.3481e+01	3.2871	47.648295	0.000486	4.864953	0.824145	-0.000097
 841	8.3580e+01	3.2667	47.539292	0.000547	5.473072	0.927163	-0.000110
 842	8.3680e+01	3.2461	47.462586	0.000385	3.851421	0.652448	-0.000077
 843	8.3779e+01	3.2265	47.341472	0.000608	6.081191	1.030182	-0.000122
 844	8.3879e+01	3.2063	47.272841	0.000345	3.446008	0.583770	-0.000069
 845	8.3978e+01	3.1873	47.135578	0.000689	6.892016	1.167539	-0.000138
 846	8.4078e+01	3.1661	47.026576	0.000547	5.473072	0.927163	-0.000110
 847	8.4177e+01	3.1469	46.917573	0.000547	5.473072	0.927163	-0.000110
 848	8.4276e+01	3.1274	46.840867	0.000385	3.851421	0.652448	-0.000077
 849	8.4376e+01	3.1064	46.687456	0.000770	7.702842	1.304897	-0.000154
 850	8.4475e+01	3.0862	46.598639	0.000446	4.459540	0.755467	-0.000089
 851	8.4575e+01	3.0672	46.534045	0.000324	3.243302	0.549430	-0.000065
 852	8.4674e+01	3.0487	46.376597	0.000791	7.905548	1.339236	-0.000158
 853	8.4774e+01	3.0270	46.243371	0.000669	6.689310	1.133200	-0.000134
 854	8.4874e+01	3.0083	46.166666	0.000385	3.851421	0.652448	-0.000077
 855	8.4973e+01	2.9868	46.061700	0.000527	5.270365	0.892824	-0.000105
 856	8.5073e+01	2.9671	45.932512	0.000649	6.486603	1.098860	-0.000130
 857	8.5172e+01	2.9473	45.831583	0.000507	5.067659	0.858485	-0.000101
 858	8.5272e+01	2.9277	45.718544	0.000568	5.675778	0.961503	-0.000114
 859	8.5371e+01	2.9079	45.625690	0.000466	4.662246	0.789806	-0.000093
 860	8.5471e+01	2.8876	45.508613	0.000588	5.878484	0.995842	-0.000118
 861	8.5570e+01	2.8684	45.399610	0.000547	5.473072	0.927163	-0.000110
 862	8.5669e+01	2.8477	45.282533	0.000588	5.878484	0.995842	-0.000118
 863	8.5769e+01	2.8282	45.177567	0.000527	5.270365	0.892824	-0.000105
 864	8.5868e+01	2.8085	45.060491	0.000588	5.878484	0.995842	-0.000118
 865	8.5968e+01	2.7876	44.967636	0.000466	4.662246	0.789806	-0.000093
 866	8.6067e+01	2.7684	44.866708	0.000507	5.067659	0.858485	-0.000101
 867	8.6167e+01	2.7489	44.773854	0.000466	4.662246	0.789806	-0.000093
 868	8.6266e+01	2.7290	44.644666	0.000649	6.486603	1.098860	-0.000130
 869	8.6366e+01	2.7090	44.527589	0.000588	5.878484	0.995842	-0.000118
 870	8.6466e+01	2.6889	44.414549	0.000568	5.675778	0.961503	-0.000114
 871	8.6565e+01	2.6691	44.305546	0.000547	5.473072	0.927163	-0.000110
 872	8.6665e+01	2.6483	44.240952	0.000324	3.243302	0.549430	-0.000065
 873	8.6764e+01	2.6288	44.091578	0.000750	7.500135	1.270557	-0.000150
 874	8.6864e+01	2.6093	43.958352	0.000669	6.689310	1.133200	-0.000134
 875	8.6963e+01	2.5893	43.885684	0.000365	3.648714	0.618109	-0.000073
 876	8.7063e+01	2.5689	43.724199	0.000811	8.108254	1.373575	-0.000162
 877	8.7162e+01	2.5499	43.687864	0.000182	1.824357	0.309054	-0.000037
 878	8.7261e+01	2.5297	43.574825	0.000568	5.675778	0.961503	-0.000114
 879	8.7361e+01	2.5097	43.433525	0.000709	7.094722	1.201879	-0.000142
 880	8.7460e+01	2.4897	43.332596	0.000507	5.067659	0.858485	-0.000101
 881	8.7560e+01	2.4702	43.231668	0.000507	5.067659	0.858485	-0.000101
 882	8.7659e+01	2.4499	43.154962	0.000385	3.851421	0.652448	-0.000077
 883	8.7759e+01	2.4300	43.005588	0.000750	7.500135	1.270557	-0.000150
 884	8.7859e+01	2.4104	42.924846	0.000405	4.054127	0.686788	-0.000081
 885	8.7958e+01	2.3904	42.823917	0.000507	5.067659	0.858485	-0.000101
 886	8.8058e+01	2.3700	42.722989	0.000507	5.067659	0.858485	-0.000101
 887	8.8157e+01	2.3506	42.569578	0.000770	7.702842	1.304897	-0.000154
 888	8.8257e+01	2.3303	42.500946	0.000345	3.446008	0.583770	-0.000069
 889	8.8356e+01	2.3109	42.331387	0.000851	8.513667	1.442254	-0.000170
 890	8.8456e+01	2.2902	42.234496	0.000486	4.864953	0.824145	-0.000097
 891	8.8555e+01	2.2707	42.173938	0.000304	3.040595	0.515091	-0.000061
 892	8.8654e+01	2.2515	42.064936	0.000547	5.473072	0.927163	-0.000110
 893	8.8754e+01	2.2309	41.955933	0.000547	5.473072	0.927163	-0.000110
 894	8.8853e+01	2.2107	41.822708	0.000669	6.689310	1.133200	-0.000134
 895	8.8953e+01	2.1909	41.701594	0.000608	6.081191	1.030182	-0.000122
 896	8.9052e+01	2.1709	41.592591	0.000547	5.473072	0.927163	-0.000110
 897	8.9152e+01	2.1521	41.511848	0.000405	4.054127	0.686788	-0.000081
 898	8.9251e+01	2.1304	41.390734	0.000608	6.081191	1.030182	-0.000122
 899	8.9351e+01	2.1112	41.277694	0.000568	5.675778	0.961503	-0.000114
 900	8.9451e+01	2.0911	41.136395	0.000709	7.094722	1.201879	-0.000142
 901	8.9550e+01	2.0715	41.043540	0.000466	4.662246	0.789806	-0.000093
 902	8.9650e+01	2.0521	40.950686	0.000466	4.662246	0.789806	-0.000093
 903	8.9749e+01	2.0309	40.801312	0.000750	7.500135	1.270557	-0.000150
 904	8.9849e+01	2.0116	40.704421	0.000486	4.864953	0.824145	-0.000097
 905	8.9948e+01	1.9914	40.627715	0.000385	3.851421	0.652448	-0.000077
 906	9.0047e+01	1.9714	40.482379	0.000730	7.297429	1.236218	-0.000146
 907	9.0147e+01	1.9520	40.389524	0.000466	4.662246	0.789806	-0.000093
 908	9.0246e+01	1.9311	40.260336	0.000649	6.486603	1.098860	-0.000130
 909	9.0346e+01	1.9120	40.127111	0.000669	6.689310	1.133200	-0.000134
 910	9.0445e+01	1.8915	40.042331	0.000426	4.256833	0.721127	-0.000085
 911	9.0545e+01	1.8723	39.937365	0.000527	5.270365	0.892824	-0.000105
 912	9.0644e+01	1.8526	39.779917	0.000791	7.905548	1.339236	-0.000158
 913	9.0744e+01	1.8322	39.691100	0.000446	4.459540	0.755467	-0.000089
 914	9.0844e+01	1.8120	39.574023	0.000588	5.878484	0.995842	-0.000118
 915	9.0943e+01	1.7909	39.493280	0.000405	4.054127	0.686788	-0.000081
 916	9.1043e+01	1.7725	39.351981	0.000709	7.094722	1.201879	-0.000142
 917	9.1142e+01	1.7519	39.226829	0.000628	6.283897	1.064521	-0.000126
 918	9.1242e+01	1.7330	39.133975	0.000466	4.662246	0.789806	-0.000093
 919	9.1341e+01	1.7113	39.020935	0.000568	5.675778	0.961503	-0.000114
 920	9.1441e+01	1.6918	38.903859	0.000588	5.878484	0.995842	-0.000118
 921	9.1540e+01	1.6730	38.786782	0.000588	5.878484	0.995842	-0.000118
 922	9.1639e+01	1.6514	38.637408	0.000750	7.500135	1.270557	-0.000150
 923	9.1739e+01	1.6327	38.544553	0.000466	4.662246	0.789806	-0.000093
 924	9.1838e+01	1.6117	38.467848	0.000385	3.851421	0.652448	-0.000077
 925	9.1938e+01	1.5928	38.358845	0.000547	5.473072	0.927163	-0.000110
 926	9.2037e+01	1.5728	38.221583	0.000689	6.892016	1.167539	-0.000138
 927	9.2137e+01	1.5530	38.092394	0.000649	6.486603	1.098860	-0.000130
 928	9.2237e+01	1.5327	37.999540	0.000466	4.662246	0.789806	-0.000093
 929	9.2336e+01	1.5139	37.866315	0.000669	6.689310	1.133200	-0.000134
 930	9.2436e+01	1.4931	37.749238	0.000588	5.878484	0.995842	-0.000118
 931	9.2535e+01	1.4728	37.640235	0.000547	5.473072	0.927163	-0.000110
 932	9.2635e+01	1.4535	37.567567	0.000365	3.648714	0.618109	-0.000073
 933	9.2734e+01	1.4333	37.418193	0.000750	7.500135	1.270557	-0.000150
 934	9.2834e+01	1.4136	37.276893	0.000709	7.094722	1.201879	-0.000142
 935	9.2933e+01	1.3939	37.175964	0.000507	5.067659	0.858485	-0.000101
 936	9.3032e+01	1.3740	37.062925	0.000568	5.675778	0.961503	-0.000114
 937	9.3132e+01	1.3540	36.970071	0.000466	4.662246	0.789806	-0.000093
 938	9.3231e+01	1.3339	36.828771	0.000709	7.094722	1.201879	-0.000142
 939	9.3331e+01	1.3132	36.760139	0.000345	3.446008	0.583770	-0.000069
 940	9.3430e+01	1.2935	36.630951	0.000649	6.486603	1.098860	-0.000130
 941	9.3530e+01	1.2737	36.477540	0.000770	7.702842	1.304897	-0.000154
 942	9.3629e+01	1.2555	36.380649	0.000486	4.864953	0.824145	-0.000097
 943	9.3729e+01	1.2350	36.267609	0.000568	5.675778	0.961503	-0.000114
 944	9.3829e+01	1.2147	36.134383	0.000669	6.689310	1.133200	-0.000134
 945	9.3928e+01	1.1947	36.041529	0.000466	4.662246	0.789806	-0.000093
 946	9.4028e+01	1.1745	35.932527	0.000547	5.473072	0.927163	-0.000110
 947	9.4127e+01	1.1549	35.819487	0.000568	5.675778	0.961503	-0.000114
 948	9.4227e+01	1.1349	35.682224	0.000689	6.892016	1.167539	-0.000138
 949	9.4326e+01	1.1152	35.565147	0.000588	5.878484	0.995842	-0.000118
 950	9.4425e+01	1.0960	35.464219	0.000507	5.067659	0.858485	-0.000101
 951	9.4525e+01	1.0757	35.367328	0.000486	4.864953	0.824145	-0.000097
 952	9.4624e+01	1.0555	35.246214	0.000608	6.081191	1.030182	-0.000122
 953	9.4724e+01	1.0362	35.096840	0.000750	7.500135	1.270557	-0.000150
 954	9.4823e+01	1.0152	34.995911	0.000507	5.067659	0.858485	-0.000101
 955	9.4923e+01	0.9956	34.854611	0.000709	7.094722	1.201879	-0.000142
 956	9.5022e+01	0.9757	34.773869	0.000405	4.054127	0.686788	-0.000081
 957	9.5122e+01	0.9566	34.616420	0.000791	7.905548	1.339236	-0.000158
 958	9.5222e+01	0.9356	34.507418	0.000547	5.473072	0.927163	-0.000110
 959	9.5321e+01	0.9155	34.406489	0.000507	5.067659	0.858485	-0.000101
 960	9.5421e+01	0.8963	34.277301	0.000649	6.486603	1.098860	-0.000130
 961	9.5520e+01	0.8769	34.164261	0.000568	5.675778	0.961503	-0.000114
 962	9.5620e+01	0.8566	34.022961	0.000709	7.094722	1.201879	-0.000142
 963	9.5719e+01	0.8372	33.905884	0.000588	5.878484	0.995842	-0.000118
 964	9.5819e+01	0.8166	33.772659	0.000669	6.689310	1.133200	-0.000134
 965	9.5918e+01	0.7964	33.643471	0.000649	6.486603	1.098860	-0.000130
 966	9.6017e+01	0.7763	33.530431	0.000568	5.675778	0.961503	-0.000114
 967	9.6117e+01	0.7568	33.401243	0.000649	6.486603	1.098860	-0.000130
 968	9.6216e+01	0.7363	33.272054	0.000649	6.486603	1.098860	-0.000130
 969	9.6316e+01	0.7172	33.154977	0.000588	5.878484	0.995842	-0.000118
 970	9.6415e+01	0.6976	33.050012	0.000527	5.270365	0.892824	-0.000105
 971	9.6515e+01	0.6765	32.908712	0.000709	7.094722	1.201879	-0.000142
 972	9.6615e+01	0.6570	32.803746	0.000527	5.270365	0.892824	-0.000105
 973	9.6714e+01	0.6368	32.670521	0.000669	6.689310	1.133200	-0.000134
 974	9.6814e+01	0.6172	32.593815	0.000385	3.851421	0.652448	-0.000077
 975	9.6913e+01	0.5976	32.424256	0.000851	8.513667	1.442254	-0.000170
 976	9.7013e+01	0.5772	32.315253	0.000547	5.473072	0.927163	-0.000110
 977	9.7112e+01	0.5576	32.157805	0.000791	7.905548	1.339236	-0.000158
 978	9.7212e+01	0.5377	32.052839	0.000527	5.270365	0.892824	-0.000105
 979	9.7311e+01	0.5169	31.899428	0.000770	7.702842	1.304897	-0.000154
 980	9.7410e+01	0.4974	31.806574	0.000466	4.662246	0.789806	-0.000093
 981	9.7510e+01	0.4775	31.665274	0.000709	7.094722	1.201879	-0.000142
 982	9.7609e+01	0.4580	31.576457	0.000446	4.459540	0.755467	-0.000089
 983	9.7709e+01	0.4372	31.463417	0.000568	5.675778	0.961503	-0.000114
 984	9.7808e+01	0.4179	31.334229	0.000649	6.486603	1.098860	-0.000130
 985	9.7908e+01	0.3987	31.196966	0.000689	6.892016	1.167539	-0.000138
 986	9.8007e+01	0.3776	31.083927	0.000568	5.675778	0.961503	-0.000114
 987	9.8107e+01	0.3590	30.946664	0.000689	6.892016	1.167539	-0.000138
 988	9.8207e+01	0.3385	30.825550	0.000608	6.081191	1.030182	-0.000122
 989	9.8306e+01	0.3183	30.696362	0.000649	6.486603	1.098860	-0.000130
 990	9.8406e+01	0.2977	30.575248	0.000608	6.081191	1.030182	-0.000122
 991	9.8505e+01	0.2777	30.502579	0.000365	3.648714	0.618109	-0.000073
 992	9.8605e+01	0.2591	30.349168	0.000770	7.702842	1.304897	-0.000154
 993	9.8704e+01	0.2383	30.195757	0.000770	7.702842	1.304897	-0.000154
 994	9.8803e+01	0.2184	30.054457	0.000709	7.094722	1.201879	-0.000142
 995	9.8903e+01	0.1989	29.977751	0.000385	3.851421	0.652448	-0.000077
 996	9.9002e+01	0.1795	29.860674	0.000588	5.878484	0.995842	-0.000118
 997	9.9102e+01	0.1587	29.699189	0.000811	8.108254	1.373575	-0.000162
 998	9.9201e+01	0.1382	29.561926	0.000689	6.892016	1.167539	-0.000138
 999	9.9301e+01	0.1178	29.477147	0.000426	4.256833	0.721127	-0.000085
1000	9.9400e+01	0.0996	29.368144	0.000547	5.473072	0.927163	-0.000110
1001	9.9500e+01	0.0802	29.242993	0.000628	6.283897	1.064521	-0.000126
1002	9.9600e+01	0.0587	29.117842	0.000628	6.283897	1.064521	-0.000126
1003	9.9699e+01	0.0381	28.960393	0.000791	7.905548	1.339236	-0.000158
1004	9.9799e+01	0.0195	28.875613	0.000426	4.256833	0.721127	-0.000085
1005	9.9898e+01	-0.0003	28.730276	0.000730	7.297429	1.236218	-0.000146
1006	9.9998e+01	-0.0181	28.601088	0.000649	6.486603	1.098860	-0.000130
1007	1.0010e+02	-0.0390	28.500160	0.000507	5.067659	0.858485	-0.000101
1008	1.0020e+02	-0.0581	28.383083	0.000588	5.878484	0.995842	-0.000118
1009	1.0030e+02	-0.0792	28.266006	0.000588	5.878484	0.995842	-0.000118
1010	1.0040e+02	-0.0984	28.140855	0.000628	6.283897	1.064521	-0.000126
1011	1.0050e+02	-0.1197	27.983406	0.000791	7.905548	1.339236	-0.000158
1012	1.0059e+02	-0.1379	27.870367	0.000568	5.675778	0.961503	-0.000114
1013	1.0069e+02	-0.1583	27.769438	0.000507	5.067659	0.858485	-0.000101
1014	1.0079e+02	-0.1785	27.636213	0.000669	6.689310	1.133200	-0.000134
1015	1.0089e+02	-0.1985	27.498950	0.000689	6.892016	1.167539	-0.000138
1016	1.0099e+02	-0.2171	27.373799	0.000628	6.283897	1.064521	-0.000126
1017	1.0109e+02	-0.2382	27.240573	0.000669	6.689310	1.133200	-0.000134
1018	1.0119e+02	-0.2579	27.171942	0.000345	3.446008	0.583770	-0.000069
1019	1.0129e+02	-0.2785	26.978160	0.000973	9.729905	1.648291	-0.000195
1020	1.0139e+02	-0.2978	26.877231	0.000507	5.067659	0.858485	-0.000101
1021	1.0149e+02	-0.3175	26.772266	0.000527	5.270365	0.892824	-0.000105
1022	1.0159e+02	-0.3376	26.586557	0.000932	9.324492	1.579612	-0.000187
1023	1.0169e+02	-0.3580	26.481592	0.000527	5.270365	0.892824	-0.000105
1024	1.0179e+02	-0.3772	26.384701	0.000486	4.864953	0.824145	-0.000097
1025	1.0189e+02	-0.3971	26.235327	0.000750	7.500135	1.270557	-0.000150
1026	1.0199e+02	-0.4174	26.106138	0.000649	6.486603	1.098860	-0.000130
1027	1.0209e+02	-0.4374	25.976950	0.000649	6.486603	1.098860	-0.000130
1028	1.0219e+02	-0.4566	25.839687	0.000689	6.892016	1.167539	-0.000138
1029	1.0229e+02	-0.4776	25.730685	0.000547	5.473072	0.927163	-0.000110
1030	1.0239e+02	-0.4970	25.589385	0.000709	7.094722	1.201879	-0.000142
1031	1.0248e+02	-0.5166	25.500568	0.000446	4.459540	0.755467	-0.000089
1032	1.0258e+02	-0.5379	25.367342	0.000669	6.689310	1.133200	-0.000134
1033	1.0268e+02	-0.5566	25.254303	0.000568	5.675778	0.961503	-0.000114
1034	1.0278e+02	-0.5762	25.149337	0.000527	5.270365	0.892824	-0.000105
1035	1.0288e+02	-0.5973	24.963629	0.000932	9.324492	1.579612	-0.000187
1036	1.0298e+02	-0.6173	24.854626	0.000547	5.473072	0.927163	-0.000110
1037	1.0308e+02	-0.6371	24.717364	0.000689	6.892016	1.167539	-0.000138
1038	1.0318e+02	-0.6556	24.624509	0.000466	4.662246	0.789806	-0.000093
1039	1.0328e+02	-0.6767	24.543767	0.000405	4.054127	0.686788	-0.000081
1040	1.0338e+02	-0.6960	24.370170	0.000872	8.716373	1.476594	-0.000174
1041	1.0348e+02	-0.7162	24.224833	0.000730	7.297429	1.236218	-0.000146
1042	1.0358e+02	-0.7361	24.103719	0.000608	6.081191	1.030182	-0.000122
1043	1.0368e+02	-0.7565	23.966456	0.000689	6.892016	1.167539	-0.000138
1044	1.0378e+02	-0.7761	23.869565	0.000486	4.864953	0.824145	-0.000097
1045	1.0388e+02	-0.7959	23.716154	0.000770	7.702842	1.304897	-0.000154
1046	1.0398e+02	-0.8157	23.623300	0.000466	4.662246	0.789806	-0.000093
1047	1.0408e+02	-0.8353	23.502186	0.000608	6.081191	1.030182	-0.000122
1048	1.0418e+02	-0.8549	23.381072	0.000608	6.081191	1.030182	-0.000122
1049	1.0428e+02	-0.8759	23.243809	0.000689	6.892016	1.167539	-0.000138
1050	1.0438e+02	-0.8961	23.134806	0.000547	5.473072	0.927163	-0.000110
1051	1.0447e+02	-0.9166	23.017729	0.000588	5.878484	0.995842	-0.000118
1052	1.0457e+02	-0.9361	22.916801	0.000507	5.067659	0.858485	-0.000101
1053	1.0467e+02	-0.9561	22.771464	0.000730	7.297429	1.236218	-0.000146
1054	1.0477e+02	-0.9758	22.630164	0.000709	7.094722	1.201879	-0.000142
1055	1.0487e+02	-0.9949	22.500976	0.000649	6.486603	1.098860	-0.000130
1056	1.0497e+02	-1.0162	22.420233	0.000405	4.054127	0.686788	-0.000081
1057	1.0507e+02	-1.0348	22.270859	0.000750	7.500135	1.270557	-0.000150
1058	1.0517e+02	-1.0558	22.173968	0.000486	4.864953	0.824145	-0.000097
1059	1.0527e+02	-1.0751	22.016520	0.000791	7.905548	1.339236	-0.000158
1060	1.0537e+02	-1.0960	21.919628	0.000486	4.864953	0.824145	-0.000097
1061	1.0547e+02	-1.1153	21.794477	0.000628	6.283897	1.064521	-0.000126
1062	1.0557e+02	-1.1350	21.693549	0.000507	5.067659	0.858485	-0.000101
1063	1.0567e+02	-1.1546	21.544175	0.000750	7.500135	1.270557	-0.000150
1064	1.0577e+02	-1.1744	21.439209	0.000527	5.270365	0.892824	-0.000105
1065	1.0587e+02	-1.1940	21.297910	0.000709	7.094722	1.201879	-0.000142
1066	1.0597e+02	-1.2152	21.152573	0.000730	7.297429	1.236218	-0.000146
1067	1.0607e+02	-1.2346	21.075867	0.000385	3.851421	0.652448	-0.000077
1068	1.0617e+02	-1.2548	20.938605	0.000689	6.892016	1.167539	-0.000138
1069	1.0627e+02	-1.2739	20.801342	0.000689	6.892016	1.167539	-0.000138
1070	1.0637e+02	-1.2934	20.651968	0.000750	7.500135	1.270557	-0.000150
1071	1.0647e+02	-1.3140	20.547002	0.000527	5.270365	0.892824	-0.000105
1072	1.0656e+02	-1.3341	20.433963	0.000568	5.675778	0.961503	-0.000114
1073	1.0666e+02	-1.3540	20.316886	0.000588	5.878484	0.995842	-0.000118
1074	1.0676e+02	-1.3736	20.175586	0.000709	7.094722	1.201879	-0.000142
1075	1.0686e+02	-1.3938	20.062546	0.000568	5.675778	0.961503	-0.000114
1076	1.0696e+02	-1.4127	19.929321	0.000669	6.689310	1.133200	-0.000134
1077	1.0706e+02	-1.4339	19.828392	0.000507	5.067659	0.858485	-0.000101
1078	1.0716e+02	-1.4532	19.626535	0.001014	10.135318	1.716969	-0.000203
1079	1.0726e+02	-1.4735	19.574053	0.000264	2.635183	0.446412	-0.000053
1080	1.0736e+02	-1.4925	19.412567	0.000811	8.108254	1.373575	-0.000162
1081	1.0746e+02	-1.5131	19.307602	0.000527	5.270365	0.892824	-0.000105
1082	1.0756e+02	-1.5332	19.166302	0.000709	7.094722	1.201879	-0.000142
1083	1.0766e+02	-1.5537	19.029039	0.000689	6.892016	1.167539	-0.000138
1084	1.0776e+02	-1.5733	18.928111	0.000507	5.067659	0.858485	-0.000101
1085	1.0786e+02	-1.5929	18.802960	0.000628	6.283897	1.064521	-0.000126
1086	1.0796e+02	-1.6129	18.718180	0.000426	4.256833	0.721127	-0.000085
1087	1.0806e+02	-1.6324	18.564769	0.000770	7.702842	1.304897	-0.000154
1088	1.0816e+02	-1.6515	18.415395	0.000750	7.500135	1.270557	-0.000150
1089	1.0826e+02	-1.6722	18.290243	0.000628	6.283897	1.064521	-0.000126
1090	1.0836e+02	-1.6924	18.189315	0.000507	5.067659	0.858485	-0.000101
1091	1.0845e+02	-1.7127	18.039941	0.000750	7.500135	1.270557	-0.000150
1092	1.0855e+02	-1.7329	17.939013	0.000507	5.067659	0.858485	-0.000101
1093	1.0865e+02	-1.7525	17.809824	0.000649	6.486603	1.098860	-0.000130
1094	1.0875e+02	-1.7725	17.684673	0.000628	6.283897	1.064521	-0.000126
1095	1.0885e+02	-1.7920	17.555485	0.000649	6.486603	1.098860	-0.000130
1096	1.0895e+02	-1.8127	17.450519	0.000527	5.270365	0.892824	-0.000105
1097	1.0905e+02	-1.8326	17.341517	0.000547	5.473072	0.927163	-0.000110
1098	1.0915e+02	-1.8518	17.192143	0.000750	7.500135	1.270557	-0.000150
1099	1.0925e+02	-1.8724	17.030657	0.000811	8.108254	1.373575	-0.000162
1100	1.0935e+02	-1.8918	16.933766	0.000486	4.864953	0.824145	-0.000097
1101	1.0945e+02	-1.9113	16.820726	0.000568	5.675778	0.961503	-0.000114
1102	1.0955e+02	-1.9316	16.691538	0.000649	6.486603	1.098860	-0.000130
1103	1.0965e+02	-1.9510	16.538127	0.000770	7.702842	1.304897	-0.000154
1104	1.0975e+02	-1.9715	16.421050	0.000588	5.878484	0.995842	-0.000118
1105	1.0985e+02	-1.9910	16.275713	0.000730	7.297429	1.236218	-0.000146
1106	1.0995e+02	-2.0113	16.211119	0.000324	3.243302	0.549430	-0.000065
1107	1.1005e+02	-2.0319	16.065782	0.000730	7.297429	1.236218	-0.000146
1108	1.1015e+02	-2.0511	15.964853	0.000507	5.067659	0.858485	-0.000101
1109	1.1025e+02	-2.0708	15.815479	0.000750	7.500135	1.270557	-0.000150
1110	1.1035e+02	-2.0914	15.714551	0.000507	5.067659	0.858485	-0.000101
1111	1.1044e+02	-2.1112	15.581325	0.000669	6.689310	1.133200	-0.000134
1112	1.1054e+02	-2.1313	15.444063	0.000689	6.892016	1.167539	-0.000138
1113	1.1064e+02	-2.1509	15.359283	0.000426	4.256833	0.721127	-0.000085
1114	1.1074e+02	-2.1709	15.189723	0.000851	8.513667	1.442254	-0.000170
1115	1.1084e+02	-2.1912	15.052461	0.000689	6.892016	1.167539	-0.000138
1116	1.1094e+02	-2.2112	14.931347	0.000608	6.081191	1.030182	-0.000122
1117	1.1104e+02	-2.2302	14.830418	0.000507	5.067659	0.858485	-0.000101
1118	1.1114e+02	-2.2510	14.721415	0.000547	5.473072	0.927163	-0.000110
1119	1.1124e+02	-2.2704	14.563967	0.000791	7.905548	1.339236	-0.000158
1120	1.1134e+02	-2.2903	14.414593	0.000750	7.500135	1.270557	-0.000150
1121	1.1144e+02	-2.3106	14.333850	0.000405	4.054127	0.686788	-0.000081
1122	1.1154e+02	-2.3296	14.184476	0.000750	7.500135	1.270557	-0.000150
1123	1.1164e+02	-2.3500	14.055288	0.000649	6.486603	1.098860	-0.000130
1124	1.1174e+02	-2.3695	13.958397	0.000486	4.864953	0.824145	-0.000097
1125	1.1184e+02	-2.3898	13.800949	0.000791	7.905548	1.339236	-0.000158
1126	1.1194e+02	-2.4107	13.708094	0.000466	4.662246	0.789806	-0.000093
1127	1.1204e+02	-2.4292	13.562758	0.000730	7.297429	1.236218	-0.000146
1128	1.1214e+02	-2.4500	13.449718	0.000568	5.675778	0.961503	-0.000114
1129	1.1224e+02	-2.4701	13.336678	0.000568	5.675778	0.961503	-0.000114
1130	1.1234e+02	-2.4901	13.183267	0.000770	7.702842	1.304897	-0.000154
1131	1.1244e+02	-2.5090	13.070227	0.000568	5.675778	0.961503	-0.000114
1132	1.1253e+02	-2.5298	12.924890	0.000730	7.297429	1.236218	-0.000146
1133	1.1263e+02	-2.5491	12.815887	0.000547	5.473072	0.927163	-0.000110
1134	1.1273e+02	-2.5693	12.674588	0.000709	7.094722	1.201879	-0.000142
1135	1.1283e+02	-2.5884	12.553474	0.000608	6.081191	1.030182	-0.000122
1136	1.1293e+02	-2.6079	12.440434	0.000568	5.675778	0.961503	-0.000114
1137	1.1303e+02	-2.6291	12.307208	0.000669	6.689310	1.133200	-0.000134
1138	1.1313e+02	-2.6489	12.113426	0.000973	9.729905	1.648291	-0.000195
1139	1.1323e+02	-2.6688	12.044794	0.000345	3.446008	0.583770	-0.000069
1140	1.1333e+02	-2.6879	11.943866	0.000507	5.067659	0.858485	-0.000101
1141	1.1343e+02	-2.7077	11.758158	0.000932	9.324492	1.579612	-0.000187
1142	1.1353e+02	-2.7286	11.669341	0.000446	4.459540	0.755467	-0.000089
1143	1.1363e+02	-2.7475	11.507855	0.000811	8.108254	1.373575	-0.000162
1144	1.1373e+02	-2.7679	11.439224	0.000345	3.446008	0.583770	-0.000069
1145	1.1383e+02	-2.7872	11.326184	0.000568	5.675778	0.961503	-0.000114
1146	1.1393e+02	-2.8072	11.144513	0.000912	9.121786	1.545272	-0.000183
1147	1.1403e+02	-2.8281	10.987065	0.000791	7.905548	1.339236	-0.000158
1148	1.1413e+02	-2.8479	10.918434	0.000345	3.446008	0.583770	-0.000069
1149	1.1423e+02	-2.8683	10.797320	0.000608	6.081191	1.030182	-0.000122
1150	1.1433e+02	-2.8870	10.651983	0.000730	7.297429	1.236218	-0.000146
1151	1.1442e+02	-2.9071	10.551054	0.000507	5.067659	0.858485	-0.000101
1152	1.1452e+02	-2.9280	10.417829	0.000669	6.689310	1.133200	-0.000134
1153	1.1462e+02	-2.9471	10.304789	0.000568	5.675778	0.961503	-0.000114
1154	1.1472e+02	-2.9688	10.187712	0.000588	5.878484	0.995842	-0.000118
1155	1.1482e+02	-2.9874	10.066598	0.000608	6.081191	1.030182	-0.000122
1156	1.1492e+02	-3.0076	9.909150	0.000791	7.905548	1.339236	-0.000158
1157	1.1502e+02	-3.0270	9.763813	0.000730	7.297429	1.236218	-0.000146
1158	1.1512e+02	-3.0469	9.687107	0.000385	3.851421	0.652448	-0.000077
1159	1.1522e+02	-3.0679	9.545807	0.000709	7.094722	1.201879	-0.000142
1160	1.1532e+02	-3.0877	9.376248	0.000851	8.513667	1.442254	-0.000170
1161	1.1542e+02	-3.1072	9.307616	0.000345	3.446008	0.583770	-0.000069
1162	1.1552e+02	-3.1271	9.170354	0.000689	6.892016	1.167539	-0.000138
1163	1.1562e+02	-3.1474	9.020980	0.000750	7.500135	1.270557	-0.000150
1164	1.1572e+02	-3.1670	8.952348	0.000345	3.446008	0.583770	-0.000069
1165	1.1582e+02	-3.1861	8.802974	0.000750	7.500135	1.270557	-0.000150
1166	1.1592e+02	-3.2057	8.693972	0.000547	5.473072	0.927163	-0.000110
1167	1.1602e+02	-3.2263	8.552672	0.000709	7.094722	1.201879	-0.000142
1168	1.1612e+02	-3.2405	8.451744	0.000507	5.067659	0.858485	-0.000101
1169	1.1622e+02	-3.2663	8.314481	0.000689	6.892016	1.167539	-0.000138
1170	1.1632e+02	-3.2857	8.185293	0.000649	6.486603	1.098860	-0.000130
1171	1.1642e+02	-3.3054	8.076290	0.000547	5.473072	0.927163	-0.000110
1172	1.1651e+02	-3.3265	7.926916	0.000750	7.500135	1.270557	-0.000150
1173	1.1661e+02	-3.3459	7.830025	0.000486	4.864953	0.824145	-0.000097
1174	1.1671e+02	-3.3652	7.684688	0.000730	7.297429	1.236218	-0.000146
1175	1.1681e+02	-3.3863	7.587797	0.000486	4.864953	0.824145	-0.000097
1176	1.1691e+02	-3.4060	7.454571	0.000669	6.689310	1.133200	-0.000134
1177	1.1701e+02	-3.4261	7.337494	0.000588	5.878484	0.995842	-0.000118
1178	1.1711e+02	-3.4457	7.216380	0.000608	6.081191	1.030182	-0.000122
1179	1.1721e+02	-3.4650	7.099303	0.000588	5.878484	0.995842	-0.000118
1180	1.1731e+02	-3.4859	7.018560	0.000405	4.054127	0.686788	-0.000081
1181	1.1741e+02	-3.5046	6.865149	0.000770	7.702842	1.304897	-0.000154
1182	1.1751e+02	-3.5259	6.699627	0.000831	8.310961	1.407915	-0.000166
1183	1.1761e+02	-3.5454	6.610810	0.000446	4.459540	0.755467	-0.000089
1184	1.1771e+02	-3.5657	6.481621	0.000649	6.486603	1.098860	-0.000130
1185	1.1781e+02	-3.5843	6.344359	0.000689	6.892016	1.167539	-0.000138
1186	1.1791e+02	-3.6050	6.279765	0.000324	3.243302	0.549430	-0.000065
1187	1.1801e+02	-3.6256	6.090019	0.000953	9.527199	1.613951	-0.000191
1188	1.1811e+02	-3.6440	5.976979	0.000568	5.675778	0.961503	-0.000114
1189	1.1821e+02	-3.6655	5.839717	0.000689	6.892016	1.167539	-0.000138
1190	1.1831e+02	-3.6851	5.730714	0.000547	5.473072	0.927163	-0.000110
1191	1.1841e+02	-3.7045	5.589414	0.000709	7.094722	1.201879	-0.000142
1192	1.1850e+02	-3.7244	5.512709	0.000385	3.851421	0.652448	-0.000077
1193	1.1860e+02	-3.7444	5.351223	0.000811	8.108254	1.373575	-0.000162
1194	1.1870e+02	-3.7653	5.258369	0.000466	4.662246	0.789806	-0.000093
1195	1.1880e+02	-3.7838	5.125144	0.000669	6.689310	1.133200	-0.000134
1196	1.1890e+02	-3.8034	4.975770	0.000750	7.500135	1.270557	-0.000150
1197	1.1900e+02	-3.8243	4.874841	0.000507	5.067659	0.858485	-0.000101
1198	1.1910e+02	-3.8437	4.765839	0.000547	5.473072	0.927163	-0.000110
1199	1.1920e+02	-3.8632	4.672985	0.000466	4.662246	0.789806	-0.000093
1200	1.1930e+02	-3.8836	4.523611	0.000750	7.500135	1.270557	-0.000150
1201	1.1940e+02	-3.9037	4.418645	0.000527	5.270365	0.892824	-0.000105
1202	1.1950e+02	-3.9245	4.305605	0.000568	5.675778	0.961503	-0.000114
1203	1.1960e+02	-3.9436	4.192565	0.000568	5.675778	0.961503	-0.000114
1204	1.1970e+02	-3.9637	4.031080	0.000811	8.108254	1.373575	-0.000162
1205	1.1980e+02	-3.9834	3.930152	0.000507	5.067659	0.858485	-0.000101
1206	1.1990e+02	-4.0028	3.796926	0.000669	6.689310	1.133200	-0.000134
1207	1.2000e+02	-4.0240	3.712146	0.000426	4.256833	0.721127	-0.000085
1208	1.2010e+02	-4.0434	3.603144	0.000547	5.473072	0.927163	-0.000110
1209	1.2020e+02	-4.0643	3.465881	0.000689	6.892016	1.167539	-0.000138
1210	1.2030e+02	-4.0826	3.340730	0.000628	6.283897	1.064521	-0.000126
1211	1.2039e+02	-4.1029	3.207504	0.000669	6.689310	1.133200	-0.000134
1212	1.2049e+02	-4.1231	3.086390	0.000608	6.081191	1.030182	-0.000122
1213	1.2059e+02	-4.1432	2.977388	0.000547	5.473072	0.927163	-0.000110
1214	1.2069e+02	-4.1621	2.828014	0.000750	7.500135	1.270557	-0.000150
1215	1.2079e+02	-4.1827	2.743234	0.000426	4.256833	0.721127	-0.000085
1216	1.2089e+02	-4.2019	2.658454	0.000426	4.256833	0.721127	-0.000085
1217	1.2099e+02	-4.2231	2.537340	0.000608	6.081191	1.030182	-0.000122
1218	1.2109e+02	-4.2429	2.375854	0.000811	8.108254	1.373575	-0.000162
1219	1.2119e+02	-4.2623	2.303186	0.000365	3.648714	0.618109	-0.000073
1220	1.2129e+02	-4.2823	2.218406	0.000426	4.256833	0.721127	-0.000085
1221	1.2139e+02	-4.3020	2.036735	0.000912	9.121786	1.545272	-0.000183
1222	1.2149e+02	-4.3219	1.968104	0.000345	3.446008	0.583770	-0.000069
1223	1.2159e+02	-4.3417	1.794507	0.000872	8.716373	1.476594	-0.000174
1224	1.2169e+02	-4.3611	1.689541	0.000527	5.270365	0.892824	-0.000105
1225	1.2179e+02	-4.3819	1.604761	0.000426	4.256833	0.721127	-0.000085
1226	1.2189e+02	-4.4020	1.467499	0.000689	6.892016	1.167539	-0.000138
1227	1.2199e+02	-4.4211	1.366570	0.000507	5.067659	0.858485	-0.000101
1228	1.2209e+02	-4.4417	1.221234	0.000730	7.297429	1.236218	-0.000146
1229	1.2219e+02	-4.4614	1.144528	0.000385	3.851421	0.652448	-0.000077
1230	1.2229e+02	-4.4814	1.031488	0.000568	5.675778	0.961503	-0.000114
1231	1.2239e+02	-4.5016	0.886151	0.000730	7.297429	1.236218	-0.000146
1232	1.2248e+02	-4.5213	0.777149	0.000547	5.473072	0.927163	-0.000110
1233	1.2258e+02	-4.5406	0.668146	0.000547	5.473072	0.927163	-0.000110
1234	1.2268e+02	-4.5609	0.530883	0.000689	6.892016	1.167539	-0.000138
1235	1.2278e+02	-4.5813	0.482438	0.000243	2.432476	0.412073	-0.000049
1236	1.2288e+02	-4.6007	0.324989	0.000791	7.905548	1.339236	-0.000158
1237	1.2298e+02	-4.6214	0.195801	0.000649	6.486603	1.098860	-0.000130
1238	1.2308e+02	-4.6414	0.082761	0.000568	5.675778	0.961503	-0.000114
1239	1.2318e+02	-4.6605	-0.030279	0.000568	5.675778	0.961503	-0.000114
1240	1.2328e+02	-4.6805	-0.167541	0.000689	6.892016	1.167539	-0.000138
1241	1.2338e+02	-4.7010	-0.252321	0.000426	4.256833	0.721127	-0.000085
1242	1.2348e+02	-4.7206	-0.405732	0.000770	7.702842	1.304897	-0.000154
1243	1.2358e+02	-4.7398	-0.506661	0.000507	5.067659	0.858485	-0.000101
1244	1.2368e+02	-4.7600	-0.619700	0.000568	5.675778	0.961503	-0.000114
1245	1.2378e+02	-4.7807	-0.720629	0.000507	5.067659	0.858485	-0.000101
1246	1.2388e+02	-4.8001	-0.886151	0.000831	8.310961	1.407915	-0.000166
1247	1.2398e+02	-4.8206	-0.983043	0.000486	4.864953	0.824145	-0.000097
1248	1.2408e+02	-4.8405	-1.144528	0.000811	8.108254	1.373575	-0.000162
1249	1.2418e+02	-4.8617	-1.213159	0.000345	3.446008	0.583770	-0.000069
1250	1.2428e+02	-4.8807	-1.342348	0.000649	6.486603	1.098860	-0.000130
1251	1.2438e+02	-4.8994	-1.471536	0.000649	6.486603	1.098860	-0.000130
1252	1.2447e+02	-4.9196	-1.608799	0.000689	6.892016	1.167539	-0.000138
1253	1.2457e+02	-4.9387	-1.721838	0.000568	5.675778	0.961503	-0.000114
1254	1.2467e+02	-4.9599	-1.826804	0.000527	5.270365	0.892824	-0.000105
1255	1.2477e+02	-4.9800	-1.984252	0.000791	7.905548	1.339236	-0.000158
1256	1.2487e+02	-4.9988	-2.064995	0.000405	4.054127	0.686788	-0.000081
1257	1.2497e+02	-5.0194	-2.222443	0.000791	7.905548	1.339236	-0.000158
1258	1.2507e+02	-5.0396	-2.287037	0.000324	3.243302	0.549430	-0.000065
1259	1.2517e+02	-5.0591	-2.408151	0.000608	6.081191	1.030182	-0.000122
1260	1.2527e+02	-5.0787	-2.557525	0.000750	7.500135	1.270557	-0.000150
1261	1.2537e+02	-5.1000	-2.670565	0.000568	5.675778	0.961503	-0.000114
1262	1.2547e+02	-5.1191	-2.819939	0.000750	7.500135	1.270557	-0.000150
1263	1.2557e+02	-5.1387	-2.908756	0.000446	4.459540	0.755467	-0.000089
1264	1.2567e+02	-5.1582	-3.041982	0.000669	6.689310	1.133200	-0.000134
1265	1.2577e+02	-5.1787	-3.175207	0.000669	6.689310	1.133200	-0.000134
1266	1.2587e+02	-5.1982	-3.288247	0.000568	5.675778	0.961503	-0.000114
1267	1.2597e+02	-5.2190	-3.421473	0.000669	6.689310	1.133200	-0.000134
1268	1.2607e+02	-5.2395	-3.534512	0.000568	5.675778	0.961503	-0.000114
1269	1.2617e+02	-5.2584	-3.655626	0.000608	6.081191	1.030182	-0.000122
1270	1.2627e+02	-5.2780	-3.825186	0.000851	8.513667	1.442254	-0.000170
1271	1.2636e+02	-5.2969	-3.914003	0.000446	4.459540	0.755467	-0.000089
1272	1.2646e+02	-5.3183	-4.027043	0.000568	5.675778	0.961503	-0.000114
1273	1.2656e+02	-5.3387	-4.140083	0.000568	5.675778	0.961503	-0.000114
1274	1.2666e+02	-5.3580	-4.257160	0.000588	5.878484	0.995842	-0.000118
1275	1.2676e+02	-5.3769	-4.362125	0.000527	5.270365	0.892824	-0.000105
1276	1.2686e+02	-5.3979	-4.503425	0.000709	7.094722	1.201879	-0.000142
1277	1.2696e+02	-5.4174	-4.640688	0.000689	6.892016	1.167539	-0.000138
1278	1.2706e+02	-5.4384	-4.781987	0.000709	7.094722	1.201879	-0.000142
1279	1.2716e+02	-5.4578	-4.858693	0.000385	3.851421	0.652448	-0.000077
1280	1.2726e+02	-5.4780	-5.016141	0.000791	7.905548	1.339236	-0.000158
1281	1.2736e+02	-5.4968	-5.161478	0.000730	7.297429	1.236218	-0.000146
1282	1.2746e+02	-5.5176	-5.246258	0.000426	4.256833	0.721127	-0.000085
1283	1.2756e+02	-5.5371	-5.391595	0.000730	7.297429	1.236218	-0.000146
1284	1.2766e+02	-5.5576	-5.540969	0.000750	7.500135	1.270557	-0.000150
1285	1.2776e+02	-5.5777	-5.649971	0.000547	5.473072	0.927163	-0.000110
1286	1.2786e+02	-5.5965	-5.787234	0.000689	6.892016	1.167539	-0.000138
1287	1.2796e+02	-5.6169	-5.912385	0.000628	6.283897	1.064521	-0.000126
1288	1.2806e+02	-5.6364	-6.053685	0.000709	7.094722	1.201879	-0.000142
1289	1.2816e+02	-5.6566	-6.174799	0.000608	6.081191	1.030182	-0.000122
1290	1.2826e+02	-5.6757	-6.312062	0.000689	6.892016	1.167539	-0.000138
1291	1.2835e+02	-5.6966	-6.461436	0.000750	7.500135	1.270557	-0.000150
1292	1.2845e+02	-5.7173	-6.562364	0.000507	5.067659	0.858485	-0.000101
1293	1.2855e+02	-5.7369	-6.703664	0.000709	7.094722	1.201879	-0.000142
1294	1.2865e+02	-5.7561	-6.849001	0.000730	7.297429	1.236218	-0.000146
1295	1.2875e+02	-5.7773	-7.018560	0.000851	8.513667	1.442254	-0.000170
1296	1.2885e+02	-5.7967	-7.115452	0.000486	4.864953	0.824145	-0.000097
1297	1.2895e+02	-5.8162	-7.252714	0.000689	6.892016	1.167539	-0.000138
1298	1.2905e+02	-5.8365	-7.381903	0.000649	6.486603	1.098860	-0.000130
1299	1.2915e+02	-5.8567	-7.498980	0.000588	5.878484	0.995842	-0.000118
1300	1.2925e+02	-5.8754	-7.656428	0.000791	7.905548	1.339236	-0.000158
1301	1.2935e+02	-5.8952	-7.817913	0.000811	8.108254	1.373575	-0.000162
1302	1.2945e+02	-5.9171	-7.963250	0.000730	7.297429	1.236218	-0.000146
1303	1.2955e+02	-5.9360	-8.060142	0.000486	4.864953	0.824145	-0.000097
1304	1.2965e+02	-5.9557	-8.229701	0.000851	8.513667	1.442254	-0.000170
1305	1.2975e+02	-5.9752	-8.342741	0.000568	5.675778	0.961503	-0.000114
1306	1.2985e+02	-5.9970	-8.475966	0.000669	6.689310	1.133200	-0.000134
1307	1.2995e+02	-6.0155	-8.629378	0.000770	7.702842	1.304897	-0.000154
1308	1.3005e+02	-6.0356	-8.798937	0.000851	8.513667	1.442254	-0.000170
1309	1.3015e+02	-6.0555	-8.952348	0.000770	7.702842	1.304897	-0.000154
1310	1.3025e+02	-6.0753	-9.069425	0.000588	5.878484	0.995842	-0.000118
1311	1.3034e+02	-6.0952	-9.198614	0.000649	6.486603	1.098860	-0.000130
1312	1.3044e+02	-6.1153	-9.368173	0.000851	8.513667	1.442254	-0.000170
1313	1.3054e+02	-6.1349	-9.497362	0.000649	6.486603	1.098860	-0.000130
1314	1.3064e+02	-6.1548	-9.691144	0.000973	9.729905	1.648291	-0.000195
1315	1.3074e+02	-6.1749	-9.824370	0.000669	6.689310	1.133200	-0.000134
1316	1.3084e+02	-6.1955	-9.953558	0.000649	6.486603	1.098860	-0.000130
1317	1.3094e+02	-6.2151	-10.106969	0.000770	7.702842	1.304897	-0.000154
1318	1.3104e+02	-6.2352	-10.220009	0.000568	5.675778	0.961503	-0.000114
1319	1.3114e+02	-6.2547	-10.409755	0.000953	9.527199	1.613951	-0.000191
1320	1.3124e+02	-6.2752	-10.559129	0.000750	7.500135	1.270557	-0.000150
1321	1.3134e+02	-6.2946	-10.708503	0.000750	7.500135	1.270557	-0.000150
1322	1.3144e+02	-6.3145	-10.853839	0.000730	7.297429	1.236218	-0.000146
1323	1.3154e+02	-6.3339	-10.954768	0.000507	5.067659	0.858485	-0.000101
1324	1.3164e+02	-6.3544	-11.144513	0.000953	9.527199	1.613951	-0.000191
1325	1.3174e+02	-6.3745	-11.322147	0.000892	8.919080	1.510933	-0.000179
1326	1.3184e+02	-6.3947	-11.459410	0.000689	6.892016	1.167539	-0.000138
1327	1.3194e+02	-6.4143	-11.620895	0.000811	8.108254	1.373575	-0.000162
1328	1.3204e+02	-6.4339	-11.750084	0.000649	6.486603	1.098860	-0.000130
1329	1.3214e+02	-6.4537	-11.927718	0.000892	8.919080	1.510933	-0.000179
1330	1.3224e+02	-6.4733	-12.060943	0.000669	6.689310	1.133200	-0.000134
1331	1.3234e+02	-6.4938	-12.250688	0.000953	9.527199	1.613951	-0.000191
1332	1.3243e+02	-6.5134	-12.412174	0.000811	8.108254	1.373575	-0.000162
1333	1.3253e+02	-6.5327	-12.565585	0.000770	7.702842	1.304897	-0.000154
1334	1.3263e+02	-6.5533	-12.714959	0.000750	7.500135	1.270557	-0.000150
1335	1.3273e+02	-6.5741	-12.856259	0.000709	7.094722	1.201879	-0.000142
1336	1.3283e+02	-6.5937	-13.070227	0.001074	10.743437	1.819987	-0.000215
1337	1.3293e+02	-6.6130	-13.211527	0.000709	7.094722	1.201879	-0.000142
1338	1.3303e+02	-6.6333	-13.377049	0.000831	8.310961	1.407915	-0.000166
1339	1.3313e+02	-6.6534	-13.526423	0.000750	7.500135	1.270557	-0.000150
1340	1.3323e+02	-6.6733	-13.700020	0.000872	8.716373	1.476594	-0.000174
1341	1.3333e+02	-6.6928	-13.829208	0.000649	6.486603	1.098860	-0.000130
1342	1.3343e+02	-6.7130	-14.063362	0.001176	11.756969	1.991684	-0.000235
1343	1.3353e+02	-6.7323	-14.208699	0.000730	7.297429	1.236218	-0.000146
1344	1.3363e+02	-6.7529	-14.362110	0.000770	7.702842	1.304897	-0.000154
1345	1.3373e+02	-6.7734	-14.539744	0.000892	8.919080	1.510933	-0.000179
1346	1.3383e+02	-6.7924	-14.733527	0.000973	9.729905	1.648291	-0.000195
1347	1.3393e+02	-6.8130	-14.878864	0.000730	7.297429	1.236218	-0.000146
1348	1.3403e+02	-6.8326	-15.080721	0.001014	10.135318	1.716969	-0.000203
1349	1.3413e+02	-6.8533	-15.238169	0.000791	7.905548	1.339236	-0.000158
1350	1.3423e+02	-6.8721	-15.411766	0.000872	8.716373	1.476594	-0.000174
1351	1.3432e+02	-6.8919	-15.593437	0.000912	9.121786	1.545272	-0.000183
1352	1.3442e+02	-6.9127	-15.811442	0.001095	10.946143	1.854327	-0.000219
1353	1.3452e+02	-6.9322	-15.944668	0.000669	6.689310	1.133200	-0.000134
1354	1.3462e+02	-6.9522	-16.146524	0.001014	10.135318	1.716969	-0.000203
1355	1.3472e+02	-6.9724	-16.312047	0.000831	8.310961	1.407915	-0.000166
1356	1.3482e+02	-6.9914	-16.485644	0.000872	8.716373	1.476594	-0.000174
1357	1.3492e+02	-7.0117	-16.683463	0.000993	9.932611	1.682630	-0.000199
1358	1.3502e+02	-7.0323	-16.861097	0.000892	8.919080	1.510933	-0.000179
1359	1.3512e+02	-7.0511	-17.050843	0.000953	9.527199	1.613951	-0.000191
1360	1.3522e+02	-7.0715	-17.232514	0.000912	9.121786	1.545272	-0.000183
1361	1.3532e+02	-7.0908	-17.462631	0.001155	11.554262	1.957345	-0.000231
1362	1.3542e+02	-7.1107	-17.624116	0.000811	8.108254	1.373575	-0.000162
1363	1.3552e+02	-7.1313	-17.842121	0.001095	10.946143	1.854327	-0.000219
1364	1.3562e+02	-7.1505	-18.043978	0.001014	10.135318	1.716969	-0.000203
1365	1.3572e+02	-7.1709	-18.221612	0.000892	8.919080	1.510933	-0.000179
1366	1.3582e+02	-7.1924	-18.403283	0.000912	9.121786	1.545272	-0.000183
1367	1.3592e+02	-7.2108	-18.588992	0.000932	9.324492	1.579612	-0.000187
1368	1.3602e+02	-7.2311	-18.778737	0.000953	9.527199	1.613951	-0.000191
1369	1.3612e+02	-7.2501	-19.012891	0.001176	11.756969	1.991684	-0.000235
1370	1.3622e+02	-7.2708	-19.214748	0.001014	10.135318	1.716969	-0.000203
1371	1.3631e+02	-7.2903	-19.384307	0.000851	8.513667	1.442254	-0.000170
1372	1.3641e+02	-7.3108	-19.586164	0.001014	10.135318	1.716969	-0.000203
1373	1.3651e+02	-7.3303	-19.832429	0.001237	12.365088	2.094703	-0.000248
1374	1.3661e+02	-7.3505	-19.993915	0.000811	8.108254	1.373575	-0.000162
1375	1.3671e+02	-7.3705	-20.236143	0.001216	12.162381	2.060363	-0.000243
1376	1.3681e+02	-7.3906	-20.393591	0.000791	7.905548	1.339236	-0.000158
1377	1.3691e+02	-7.4095	-20.635819	0.001216	12.162381	2.060363	-0.000243
1378	1.3701e+02	-7.4286	-20.857862	0.001115	11.148850	1.888666	-0.000223
1379	1.3711e+02	-7.4510	-21.059719	0.001014	10.135318	1.716969	-0.000203
1380	1.3721e+02	-7.4699	-21.277724	0.001095	10.946143	1.854327	-0.000219
1381	1.3731e+02	-7.4906	-21.479581	0.001014	10.135318	1.716969	-0.000203
1382	1.3741e+02	-7.5095	-21.701623	0.001115	11.148850	1.888666	-0.000223
1383	1.3751e+02	-7.5302	-21.911554	0.001054	10.540731	1.785648	-0.000211
1384	1.3761e+02	-7.5497	-22.109374	0.000993	9.932611	1.682630	-0.000199
1385	1.3771e+02	-7.5689	-22.363713	0.001277	12.770500	2.163381	-0.000256
1386	1.3781e+02	-7.5888	-22.565570	0.001014	10.135318	1.716969	-0.000203
1387	1.3791e+02	-7.6086	-22.823947	0.001297	12.973207	2.197721	-0.000260
1388	1.3801e+02	-7.6291	-23.037915	0.001074	10.743437	1.819987	-0.000215
1389	1.3811e+02	-7.6483	-23.239772	0.001014	10.135318	1.716969	-0.000203
1390	1.3821e+02	-7.6685	-23.502186	0.001318	13.175913	2.232060	-0.000264
1391	1.3831e+02	-7.6885	-23.732302	0.001155	11.554262	1.957345	-0.000231
1392	1.3840e+02	-7.7090	-23.889751	0.000791	7.905548	1.339236	-0.000158
1393	1.3850e+02	-7.7286	-24.136016	0.001237	12.365088	2.094703	-0.000248
1394	1.3860e+02	-7.7480	-24.374207	0.001196	11.959675	2.026024	-0.000239
1395	1.3870e+02	-7.7676	-24.628547	0.001277	12.770500	2.163381	-0.000256
1396	1.3880e+02	-7.7884	-24.882886	0.001277	12.770500	2.163381	-0.000256
1397	1.3890e+02	-7.8090	-25.096854	0.001074	10.743437	1.819987	-0.000215
1398	1.3900e+02	-7.8276	-25.310823	0.001074	10.743437	1.819987	-0.000215
1399	1.3910e+02	-7.8473	-25.577273	0.001338	13.378620	2.266400	-0.000268
1400	1.3920e+02	-7.8684	-25.843724	0.001338	13.378620	2.266400	-0.000268
1401	1.3930e+02	-7.8870	-26.077878	0.001176	11.756969	1.991684	-0.000235
1402	1.3940e+02	-7.9079	-26.307995	0.001155	11.554262	1.957345	-0.000231
1403	1.3950e+02	-7.9279	-26.570409	0.001318	13.175913	2.232060	-0.000264
1404	1.3960e+02	-7.9471	-26.824748	0.001277	12.770500	2.163381	-0.000256
1405	1.3970e+02	-7.9683	-27.099274	0.001378	13.784032	2.335078	-0.000276
1406	1.3980e+02	-7.9868	-27.361687	0.001318	13.175913	2.232060	-0.000264
1407	1.3990e+02	-8.0070	-27.583730	0.001115	11.148850	1.888666	-0.000223
1408	1.4000e+02	-8.0268	-27.834032	0.001257	12.567794	2.129042	-0.000252
1409	1.4010e+02	-8.0468	-28.140855	0.001541	15.405683	2.609793	-0.000308
1410	1.4020e+02	-8.0672	-28.427491	0.001439	14.392151	2.438096	-0.000288
1411	1.4029e+02	-8.0869	-28.605125	0.000892	8.919080	1.510933	-0.000179
1412	1.4039e+02	-8.1071	-28.944245	0.001703	17.027334	2.884508	-0.000341
1413	1.4049e+02	-8.1262	-29.206658	0.001318	13.175913	2.232060	-0.000264
1414	1.4059e+02	-8.1476	-29.481184	0.001378	13.784032	2.335078	-0.000276
1415	1.4069e+02	-8.1662	-29.775895	0.001480	14.797564	2.506775	-0.000296
1416	1.4079e+02	-8.1860	-30.026197	0.001257	12.567794	2.129042	-0.000252
1417	1.4089e+02	-8.2058	-30.304759	0.001399	13.986739	2.369418	-0.000280
1418	1.4099e+02	-8.2270	-30.623693	0.001601	16.013802	2.712812	-0.000321
1419	1.4109e+02	-8.2473	-30.906293	0.001419	14.189445	2.403757	-0.000284
1420	1.4119e+02	-8.2662	-31.209078	0.001520	15.202977	2.575454	-0.000304
1421	1.4129e+02	-8.2866	-31.463417	0.001277	12.770500	2.163381	-0.000256
1422	1.4139e+02	-8.3064	-31.713720	0.001257	12.567794	2.129042	-0.000252
1423	1.4149e+02	-8.3260	-32.024579	0.001561	15.608389	2.644133	-0.000312
1424	1.4159e+02	-8.3463	-32.331402	0.001541	15.405683	2.609793	-0.000308
1425	1.4169e+02	-8.3656	-32.630150	0.001500	15.000270	2.541115	-0.000300
1426	1.4179e+02	-8.3864	-32.936972	0.001541	15.405683	2.609793	-0.000308
1427	1.4189e+02	-8.4061	-33.223609	0.001439	14.392151	2.438096	-0.000288
1428	1.4199e+02	-8.4259	-33.542542	0.001601	16.013802	2.712812	-0.000321
1429	1.4209e+02	-8.4464	-33.808993	0.001338	13.378620	2.266400	-0.000268
1430	1.4219e+02	-8.4651	-34.131964	0.001622	16.216509	2.747151	-0.000325
1431	1.4228e+02	-8.4859	-34.491269	0.001804	18.040866	3.056205	-0.000361
1432	1.4238e+02	-8.5057	-34.798091	0.001541	15.405683	2.609793	-0.000308
1433	1.4248e+02	-8.5254	-35.096840	0.001500	15.000270	2.541115	-0.000300
1434	1.4258e+02	-8.5449	-35.399625	0.001520	15.202977	2.575454	-0.000304
1435	1.4268e+02	-8.5649	-35.714521	0.001581	15.811096	2.678472	-0.000316
1436	1.4278e+02	-8.5852	-36.073826	0.001804	18.040866	3.056205	-0.000361
1437	1.4288e+02	-8.6058	-36.380649	0.001541	15.405683	2.609793	-0.000308
1438	1.4298e+02	-8.6240	-36.703620	0.001622	16.216509	2.747151	-0.000325
1439	1.4308e+02	-8.6456	-37.034665	0.001662	16.621921	2.815830	-0.000333
1440	1.4318e+02	-8.6655	-37.365710	0.001662	16.621921	2.815830	-0.000333
1441	1.4328e+02	-8.6843	-37.720978	0.001784	17.838159	3.021866	-0.000357
1442	1.4338e+02	-8.7045	-38.043949	0.001622	16.216509	2.747151	-0.000325
1443	1.4348e+02	-8.7251	-38.370957	0.001642	16.419215	2.781490	-0.000329
1444	1.4358e+02	-8.7439	-38.750447	0.001905	19.054398	3.227902	-0.000381
1445	1.4368e+02	-8.7646	-39.081493	0.001662	16.621921	2.815830	-0.000333
1446	1.4378e+02	-8.7841	-39.420612	0.001703	17.027334	2.884508	-0.000341
1447	1.4388e+02	-8.8032	-39.771843	0.001764	17.635453	2.987527	-0.000353
1448	1.4398e+02	-8.8240	-40.143259	0.001865	18.648985	3.159224	-0.000373
1449	1.4408e+02	-8.8445	-40.506601	0.001824	18.243572	3.090545	-0.000365
1450	1.4418e+02	-8.8642	-40.849758	0.001723	17.230040	2.918848	-0.000345
1451	1.4428e+02	-8.8837	-41.221174	0.001865	18.648985	3.159224	-0.000373
1452	1.4437e+02	-8.9043	-41.624888	0.002027	20.270636	3.433939	-0.000406
1453	1.4447e+02	-8.9242	-41.959970	0.001682	16.824628	2.850169	-0.000337
1454	1.4457e+02	-8.9429	-42.319275	0.001804	18.040866	3.056205	-0.000361
1455	1.4467e+02	-8.9627	-42.702803	0.001926	19.257104	3.262242	-0.000385
1456	1.4477e+02	-8.9828	-43.058071	0.001784	17.838159	3.021866	-0.000357
1457	1.4487e+02	-9.0034	-43.481970	0.002128	21.284167	3.605636	-0.000426
1458	1.4497e+02	-9.0236	-43.861461	0.001905	19.054398	3.227902	-0.000381
1459	1.4507e+02	-9.0437	-44.253063	0.001966	19.662517	3.330920	-0.000394
1460	1.4517e+02	-9.0630	-44.608331	0.001784	17.838159	3.021866	-0.000357
1461	1.4527e+02	-9.0826	-45.020119	0.002068	20.676048	3.502617	-0.000414
1462	1.4537e+02	-9.1022	-45.456130	0.002189	21.892287	3.708654	-0.000438
1463	1.4547e+02	-9.1232	-45.807361	0.001764	17.635453	2.987527	-0.000353
1464	1.4557e+02	-9.1426	-46.243371	0.002189	21.892287	3.708654	-0.000438
1465	1.4567e+02	-9.1626	-46.651122	0.002047	20.473342	3.468278	-0.000410
1466	1.4577e+02	-9.1824	-47.083096	0.002169	21.689580	3.674314	-0.000434
1467	1.4587e+02	-9.2026	-47.470661	0.001946	19.459810	3.296581	-0.000390
1468	1.4597e+02	-9.2213	-47.894560	0.002128	21.284167	3.605636	-0.000426
1469	1.4607e+02	-9.2427	-48.358830	0.002331	23.311231	3.949029	-0.000467
1470	1.4617e+02	-9.2627	-48.778693	0.002108	21.081461	3.571296	-0.000422
1471	1.4626e+02	-9.2822	-49.182406	0.002027	20.270636	3.433939	-0.000406
1472	1.4636e+02	-9.3030	-49.670900	0.002453	24.527469	4.155066	-0.000491
1473	1.4646e+02	-9.3211	-50.062502	0.001966	19.662517	3.330920	-0.000394
1474	1.4656e+02	-9.3414	-50.510624	0.002250	22.500406	3.811672	-0.000450
1475	1.4666e+02	-9.3623	-50.930486	0.002108	21.081461	3.571296	-0.000422
1476	1.4676e+02	-9.3822	-51.386682	0.002291	22.905818	3.880351	-0.000458
1477	1.4686e+02	-9.4019	-51.846916	0.002311	23.108525	3.914690	-0.000463
1478	1.4696e+02	-9.4211	-52.299075	0.002270	22.703112	3.846011	-0.000454
1479	1.4706e+02	-9.4412	-52.743160	0.002230	22.297699	3.777333	-0.000446
1480	1.4716e+02	-9.4609	-53.219542	0.002392	23.919350	4.052048	-0.000479
1481	1.4726e+02	-9.4821	-53.699961	0.002412	24.122056	4.086387	-0.000483
1482	1.4736e+02	-9.5015	-54.144046	0.002230	22.297699	3.777333	-0.000446
1483	1.4746e+02	-9.5213	-54.636577	0.002473	24.730176	4.189405	-0.000495
1484	1.4756e+02	-9.5396	-55.092773	0.002291	22.905818	3.880351	-0.000458
1485	1.4766e+02	-9.5609	-55.593378	0.002514	25.135588	4.258084	-0.000503
1486	1.4776e+02	-9.5809	-56.098020	0.002534	25.338295	4.292423	-0.000507
1487	1.4786e+02	-9.6007	-56.554216	0.002291	22.905818	3.880351	-0.000458
1488	1.4796e+02	-9.6208	-57.075006	0.002615	26.149120	4.429781	-0.000523
1489	1.4806e+02	-9.6399	-57.579648	0.002534	25.338295	4.292423	-0.000507
1490	1.4816e+02	-9.6608	-58.100439	0.002615	26.149120	4.429781	-0.000523
1491	1.4825e+02	-9.6808	-58.588932	0.002453	24.527469	4.155066	-0.000491
1492	1.4835e+02	-9.7005	-59.069352	0.002412	24.122056	4.086387	-0.000483
1493	1.4845e+02	-9.7202	-59.569956	0.002514	25.135588	4.258084	-0.000503
1494	1.4855e+02	-9.7407	-60.131118	0.002818	28.176184	4.773175	-0.000564
1495	1.4865e+02	-9.7604	-60.627686	0.002493	24.932882	4.223745	-0.000499
1496	1.4875e+02	-9.7803	-61.160588	0.002676	26.757239	4.532799	-0.000536
1497	1.4885e+02	-9.7998	-61.701564	0.002716	27.162652	4.601478	-0.000544
1498	1.4895e+02	-9.8199	-62.238503	0.002696	26.959945	4.567138	-0.000540
1499	1.4905e+02	-9.8405	-62.763331	0.002635	26.351826	4.464120	-0.000527
1500	1.4915e+02	-9.8600	-63.320455	0.002797	27.973477	4.738835	-0.000560
1501	1.4925e+02	-9.8788	-63.853357	0.002676	26.757239	4.532799	-0.000536
1502	1.4935e+02	-9.8991	-64.378185	0.002635	26.351826	4.464120	-0.000527
1503	1.4945e+02	-9.9182	-64.955495	0.002899	28.987009	4.910532	-0.000580
1504	1.4955e+02	-9.9390	-65.488397	0.002676	26.757239	4.532799	-0.000536
1505	1.4965e+02	-9.9591	-66.089931	0.003020	30.203247	5.116569	-0.000605
1506	1.4975e+02	-9.9799	-66.626870	0.002696	26.959945	4.567138	-0.000540
1507	1.4985e+02	-9.9988	-67.236477	0.003061	30.608660	5.185247	-0.000613
1508	1.4995e+02	-9.9789	-67.644228	-0.002047	-20.473342	-3.468278	-0.000410
1509	1.5005e+02	-9.9594	-68.051979	-0.002047	-20.473342	-3.468278	-0.000410
1510	1.5015e+02	-9.9390	-68.415321	-0.001824	-18.243572	-3.090545	-0.000365
1511	1.5025e+02	-9.9194	-68.746366	-0.001662	-16.621921	-2.815830	-0.000333
1512	1.5034e+02	-9.8994	-69.085485	-0.001703	-17.027334	-2.884508	-0.000341
1513	1.5044e+02	-9.8792	-69.408456	-0.001622	-16.216509	-2.747151	-0.000325
1514	1.5054e+02	-9.8598	-69.695093	-0.001439	-14.392151	-2.438096	-0.000288
1515	1.5064e+02	-9.8387	-69.969618	-0.001378	-13.784032	-2.335078	-0.000276
1516	1.5074e+02	-9.8189	-70.276440	-0.001541	-15.405683	-2.609793	-0.000308
1517	1.5084e+02	-9.8003	-70.502520	-0.001135	-11.351556	-1.923006	-0.000227
1518	1.5094e+02	-9.7798	-70.801268	-0.001500	-15.000270	-2.541115	-0.000300
1519	1.5104e+02	-9.7604	-71.027348	-0.001135	-11.351556	-1.923006	-0.000227
1520	1.5114e+02	-9.7411	-71.265539	-0.001196	-11.959675	-2.026024	-0.000239
1521	1.5124e+02	-9.7211	-71.495655	-0.001155	-11.554262	-1.957345	-0.000231
1522	1.5134e+02	-9.7006	-71.713661	-0.001095	-10.946143	-1.854327	-0.000219
1523	1.5144e+02	-9.6802	-71.927629	-0.001074	-10.743437	-1.819987	-0.000215
1524	1.5154e+02	-9.6611	-72.153708	-0.001135	-11.351556	-1.923006	-0.000227
1525	1.5164e+02	-9.6407	-72.319231	-0.000831	-8.310961	-1.407915	-0.000166
1526	1.5174e+02	-9.6207	-72.500902	-0.000912	-9.121786	-1.545272	-0.000183
1527	1.5184e+02	-9.6001	-72.678536	-0.000892	-8.919080	-1.510933	-0.000179
1528	1.5194e+02	-9.5798	-72.856170	-0.000892	-8.919080	-1.510933	-0.000179
1529	1.5204e+02	-9.5607	-73.017656	-0.000811	-8.108254	-1.373575	-0.000162
1530	1.5214e+02	-9.5399	-73.187215	-0.000851	-8.513667	-1.442254	-0.000170
1531	1.5224e+02	-9.5210	-73.320441	-0.000669	-6.689310	-1.133200	-0.000134
1532	1.5233e+02	-9.5007	-73.485963	-0.000831	-8.310961	-1.407915	-0.000166
1533	1.5243e+02	-9.4840	-73.599003	-0.000568	-5.675778	-0.961503	-0.000114
1534	1.5253e+02	-9.4620	-73.732229	-0.000669	-6.689310	-1.133200	-0.000134
1535	1.5263e+02	-9.4408	-73.873528	-0.000709	-7.094722	-1.201879	-0.000142
1536	1.5273e+02	-9.4214	-73.994642	-0.000608	-6.081191	-1.030182	-0.000122
1537	1.5283e+02	-9.4014	-74.119794	-0.000628	-6.283897	-1.064521	-0.000126
1538	1.5293e+02	-9.3811	-74.244945	-0.000628	-6.283897	-1.064521	-0.000126
1539	1.5303e+02	-9.3616	-74.301465	-0.000284	-2.837889	-0.480751	-0.000057
1540	1.5313e+02	-9.3411	-74.402393	-0.000507	-5.067659	-0.858485	-0.000101
1541	1.5323e+02	-9.3213	-74.600213	-0.000993	-9.932611	-1.682630	-0.000199
1542	1.5333e+02	-9.3021	-74.648658	-0.000243	-2.432476	-0.412073	-0.000049
1543	1.5343e+02	-9.2826	-74.709215	-0.000304	-3.040595	-0.515091	-0.000061
1544	1.5353e+02	-9.2622	-74.818218	-0.000547	-5.473072	-0.927163	-0.000110
1545	1.5363e+02	-9.2413	-74.894924	-0.000385	-3.851421	-0.652448	-0.000077
1546	1.5373e+02	-9.2221	-74.931258	-0.000182	-1.824357	-0.309054	-0.000037
1547	1.5383e+02	-9.2027	-75.028149	-0.000486	-4.864953	-0.824145	-0.000097
1548	1.5393e+02	-9.1820	-75.084669	-0.000284	-2.837889	-0.480751	-0.000057
1549	1.5403e+02	-9.1614	-75.141189	-0.000284	-2.837889	-0.480751	-0.000057
1550	1.5413e+02	-9.1429	-75.217895	-0.000385	-3.851421	-0.652448	-0.000077
1551	1.5422e+02	-9.1228	-75.262303	-0.000223	-2.229770	-0.377733	-0.000045
1552	1.5432e+02	-9.1028	-75.339009	-0.000385	-3.851421	-0.652448	-0.000077
1553	1.5442e+02	-9.0833	-75.411677	-0.000365	-3.648714	-0.618109	-0.000073
1554	1.5452e+02	-9.0639	-75.431863	-0.000101	-1.013532	-0.171697	-0.000020
1555	1.5462e+02	-9.0430	-75.443974	-0.000061	-0.608119	-0.103018	-0.000012
1556	1.5472e+02	-9.0233	-75.488383	-0.000223	-2.229770	-0.377733	-0.000045
1557	1.5482e+02	-9.0034	-75.565088	-0.000385	-3.851421	-0.652448	-0.000077
1558	1.5492e+02	-8.9828	-75.593348	-0.000142	-1.418944	-0.240376	-0.000028
1559	1.5502e+02	-8.9630	-75.670054	-0.000385	-3.851421	-0.652448	-0.000077
1560	1.5512e+02	-8.9429	-75.657942	0.000061	0.608119	0.103018	0.000012
1561	1.5522e+02	-8.9226	-75.678128	-0.000101	-1.013532	-0.171697	-0.000020
1562	1.5532e+02	-8.9026	-75.738685	-0.000304	-3.040595	-0.515091	-0.000061
1563	1.5542e+02	-8.8836	-75.698314	0.000203	2.027064	0.343394	0.000041
1564	1.5552e+02	-8.8634	-75.766945	-0.000345	-3.446008	-0.583770	-0.000069
1565	1.5562e+02	-8.8428	-75.819428	-0.000264	-2.635183	-0.446412	-0.000053
1566	1.5572e+02	-8.8240	-75.779056	0.000203	2.027064	0.343394	0.000041
1567	1.5582e+02	-8.8037	-75.807316	-0.000142	-1.418944	-0.240376	-0.000028
1568	1.5592e+02	-8.7840	-75.827502	-0.000101	-1.013532	-0.171697	-0.000020
1569	1.5602e+02	-8.7650	-75.839613	-0.000061	-0.608119	-0.103018	-0.000012
1570	1.5612e+02	-8.7437	-75.847688	-0.000041	-0.405413	-0.068679	-0.000008
1571	1.5622e+02	-8.7247	-75.892096	-0.000223	-2.229770	-0.377733	-0.000045
1572	1.5631e+02	-8.7041	-75.847688	0.000223	2.229770	0.377733	0.000045
1573	1.5641e+02	-8.6842	-75.867873	-0.000101	-1.013532	-0.171697	-0.000020
1574	1.5651e+02	-8.6642	-75.859799	0.000041	0.405413	0.068679	0.000008
1575	1.5661e+02	-8.6452	-75.839613	0.000101	1.013532	0.171697	0.000020
1576	1.5671e+02	-8.6257	-75.819428	0.000101	1.013532	0.171697	0.000020
1577	1.5681e+02	-8.6047	-75.843651	-0.000122	-1.216238	-0.206036	-0.000024
1578	1.5691e+02	-8.5844	-75.835576	0.000041	0.405413	0.068679	0.000008
1579	1.5701e+02	-8.5654	-75.867873	-0.000162	-1.621651	-0.274715	-0.000032
1580	1.5711e+02	-8.5452	-75.819428	0.000243	2.432476	0.412073	0.000049
1581	1.5721e+02	-8.5250	-75.791168	0.000142	1.418944	0.240376	0.000028
1582	1.5731e+02	-8.5053	-75.843651	-0.000264	-2.635183	-0.446412	-0.000053
1583	1.5741e+02	-8.4854	-75.799242	0.000223	2.229770	0.377733	0.000045
1584	1.5751e+02	-8.4659	-75.730611	0.000345	3.446008	0.583770	0.000069
1585	1.5761e+02	-8.4443	-75.783094	-0.000264	-2.635183	-0.446412	-0.000053
1586	1.5771e+02	-8.4259	-75.690239	0.000466	4.662246	0.789806	0.000093
1587	1.5781e+02	-8.4064	-75.710425	-0.000101	-1.013532	-0.171697	-0.000020
1588	1.5791e+02	-8.3868	-75.686202	0.000122	1.216238	0.206036	0.000024
1589	1.5801e+02	-8.3655	-75.670054	0.000081	0.810825	0.137358	0.000016
1590	1.5811e+02	-8.3452	-75.674091	-0.000020	-0.202706	-0.034339	-0.000004
1591	1.5821e+02	-8.3251	-75.617571	0.000284	2.837889	0.480751	0.000057
1592	1.5830e+02	-8.3063	-75.601422	0.000081	0.810825	0.137358	0.000016
1593	1.5840e+02	-8.2856	-75.544902	0.000284	2.837889	0.480751	0.000057
1594	1.5850e+02	-8.2663	-75.524717	0.000101	1.013532	0.171697	0.000020
1595	1.5860e+02	-8.2465	-75.492420	0.000162	1.621651	0.274715	0.000032
1596	1.5870e+02	-8.2271	-75.476271	0.000081	0.810825	0.137358	0.000016
1597	1.5880e+02	-8.2066	-75.431863	0.000223	2.229770	0.377733	0.000045
1598	1.5890e+02	-8.1869	-75.395528	0.000182	1.824357	0.309054	0.000037
1599	1.5900e+02	-8.1657	-75.347083	0.000243	2.432476	0.412073	0.000049
1600	1.5910e+02	-8.1461	-75.334971	0.000061	0.608119	0.103018	0.000012
1601	1.5920e+02	-8.1265	-75.294600	0.000203	2.027064	0.343394	0.000041
1602	1.5930e+02	-8.1070	-75.258266	0.000182	1.824357	0.309054	0.000037
1603	1.5940e+02	-8.0871	-75.230006	0.000142	1.418944	0.240376	0.000028
1604	1.5950e+02	-8.0664	-75.173486	0.000284	2.837889	0.480751	0.000057
1605	1.5960e+02	-8.0467	-75.137152	0.000182	1.824357	0.309054	0.000037
1606	1.5970e+02	-8.0269	-75.129078	0.000041	0.405413	0.068679	0.000008
1607	1.5980e+02	-8.0077	-75.044298	0.000426	4.256833	0.721127	0.000085
1608	1.5990e+02	-7.9866	-74.979703	0.000324	3.243302	0.549430	0.000065
1609	1.6000e+02	-7.9674	-74.951444	0.000142	1.418944	0.240376	0.000028
1610	1.6010e+02	-7.9482	-74.927221	0.000122	1.216238	0.206036	0.000024
1611	1.6019e+02	-7.9279	-74.854552	0.000365	3.648714	0.618109	0.000073
1612	1.6029e+02	-7.9076	-74.798032	0.000284	2.837889	0.480751	0.000057
1613	1.6039e+02	-7.8877	-74.777847	0.000101	1.013532	0.171697	0.000020
1614	1.6049e+02	-7.8683	-74.709215	0.000345	3.446008	0.583770	0.000069
1615	1.6059e+02	-7.8482	-74.648658	0.000304	3.040595	0.515091	0.000061
1616	1.6069e+02	-7.8281	-74.596176	0.000264	2.635183	0.446412	0.000053
1617	1.6079e+02	-7.8082	-74.559841	0.000182	1.824357	0.309054	0.000037
1618	1.6089e+02	-7.7878	-74.539656	0.000101	1.013532	0.171697	0.000020
1619	1.6099e+02	-7.7688	-74.454876	0.000426	4.256833	0.721127	0.000085
1620	1.6109e+02	-7.7487	-74.341836	0.000568	5.675778	0.961503	0.000114
1621	1.6119e+02	-7.7285	-74.353947	-0.000061	-0.608119	-0.103018	-0.000012
1622	1.6129e+02	-7.7088	-74.293390	0.000304	3.040595	0.515091	0.000061
1623	1.6139e+02	-7.6885	-74.265130	0.000142	1.418944	0.240376	0.000028
1624	1.6149e+02	-7.6688	-74.180351	0.000426	4.256833	0.721127	0.000085
1625	1.6159e+02	-7.6485	-74.152091	0.000142	1.418944	0.240376	0.000028
1626	1.6169e+02	-7.6283	-74.111719	0.000203	2.027064	0.343394	0.000041
1627	1.6179e+02	-7.6092	-74.067311	0.000223	2.229770	0.377733	0.000045
1628	1.6189e+02	-7.5890	-73.946197	0.000608	6.081191	1.030182	0.000122
1629	1.6199e+02	-7.5684	-73.917937	0.000142	1.418944	0.240376	0.000028
1630	1.6209e+02	-7.5504	-73.845268	0.000365	3.648714	0.618109	0.000073
1631	1.6219e+02	-7.5294	-73.825083	0.000101	1.013532	0.171697	0.000020
1632	1.6228e+02	-7.5088	-73.732229	0.000466	4.662246	0.789806	0.000093
1633	1.6238e+02	-7.4899	-73.720117	0.000061	0.608119	0.103018	0.000012
1634	1.6248e+02	-7.4695	-73.631300	0.000446	4.459540	0.755467	0.000089
1635	1.6258e+02	-7.4500	-73.594966	0.000182	1.824357	0.309054	0.000037
1636	1.6268e+02	-7.4304	-73.502112	0.000466	4.662246	0.789806	0.000093
1637	1.6278e+02	-7.4098	-73.469815	0.000162	1.621651	0.274715	0.000032
1638	1.6288e+02	-7.3907	-73.376961	0.000466	4.662246	0.789806	0.000093
1639	1.6298e+02	-7.3705	-73.344664	0.000162	1.621651	0.274715	0.000032
1640	1.6308e+02	-7.3502	-73.284106	0.000304	3.040595	0.515091	0.000061
1641	1.6318e+02	-7.3306	-73.231624	0.000264	2.635183	0.446412	0.000053
1642	1.6328e+02	-7.3108	-73.175104	0.000284	2.837889	0.480751	0.000057
1643	1.6338e+02	-7.2914	-73.094361	0.000405	4.054127	0.686788	0.000081
1644	1.6348e+02	-7.2719	-73.037841	0.000284	2.837889	0.480751	0.000057
1645	1.6358e+02	-7.2498	-73.001507	0.000182	1.824357	0.309054	0.000037
1646	1.6368e+02	-7.2304	-72.928839	0.000365	3.648714	0.618109	0.000073
1647	1.6378e+02	-7.2115	-72.880393	0.000243	2.432476	0.412073	0.000049
1648	1.6388e+02	-7.1922	-72.835984	0.000223	2.229770	0.377733	0.000045
1649	1.6398e+02	-7.1707	-72.767353	0.000345	3.446008	0.583770	0.000069
1650	1.6408e+02	-7.1513	-72.666425	0.000507	5.067659	0.858485	0.000101
1651	1.6418e+02	-7.1313	-72.634128	0.000162	1.621651	0.274715	0.000032
1652	1.6427e+02	-7.1115	-72.549348	0.000426	4.256833	0.721127	0.000085
1653	1.6437e+02	-7.0907	-72.496865	0.000264	2.635183	0.446412	0.000053
1654	1.6447e+02	-7.0714	-72.408048	0.000446	4.459540	0.755467	0.000089
1655	1.6457e+02	-7.0515	-72.327305	0.000405	4.054127	0.686788	0.000081
1656	1.6467e+02	-7.0325	-72.266748	0.000304	3.040595	0.515091	0.000061
1657	1.6477e+02	-7.0120	-72.210228	0.000284	2.837889	0.480751	0.000057
1658	1.6487e+02	-6.9912	-72.129486	0.000405	4.054127	0.686788	0.000081
1659	1.6497e+02	-6.9710	-72.048743	0.000405	4.054127	0.686788	0.000081
1660	1.6507e+02	-6.9521	-72.000297	0.000243	2.432476	0.412073	0.000049
1661	1.6517e+02	-6.9321	-71.907443	0.000466	4.662246	0.789806	0.000093
1662	1.6527e+02	-6.9112	-71.887258	0.000101	1.013532	0.171697	0.000020
1663	1.6537e+02	-6.8913	-71.778255	0.000547	5.473072	0.927163	0.000110
1664	1.6547e+02	-6.8723	-71.729809	0.000243	2.432476	0.412073	0.000049
1665	1.6557e+02	-6.8520	-71.669252	0.000304	3.040595	0.515091	0.000061
1666	1.6567e+02	-6.8338	-71.600621	0.000345	3.446008	0.583770	0.000069
1667	1.6577e+02	-6.8125	-71.507767	0.000466	4.662246	0.789806	0.000093
1668	1.6587e+02	-6.7929	-71.459321	0.000243	2.432476	0.412073	0.000049
1669	1.6597e+02	-6.7724	-71.402801	0.000284	2.837889	0.480751	0.000057
1670	1.6607e+02	-6.7528	-71.322059	0.000405	4.054127	0.686788	0.000081
1671	1.6616e+02	-6.7325	-71.217093	0.000527	5.270365	0.892824	0.000105
1672	1.6626e+02	-6.7130	-71.152499	0.000324	3.243302	0.549430	0.000065
1673	1.6636e+02	-6.6931	-71.043496	0.000547	5.473072	0.927163	0.000110
1674	1.6646e+02	-6.6734	-71.039459	0.000020	0.202706	0.034339	0.000004
1675	1.6656e+02	-6.6525	-70.962753	0.000385	3.851421	0.652448	0.000077
1676	1.6666e+02	-6.6330	-70.873936	0.000446	4.459540	0.755467	0.000089
1677	1.6676e+02	-6.6130	-70.825491	0.000243	2.432476	0.412073	0.000049
1678	1.6686e+02	-6.5935	-70.728600	0.000486	4.864953	0.824145	0.000097
1679	1.6696e+02	-6.5733	-70.684191	0.000223	2.229770	0.377733	0.000045
1680	1.6706e+02	-6.5532	-70.587300	0.000486	4.864953	0.824145	0.000097
1681	1.6716e+02	-6.5329	-70.522706	0.000324	3.243302	0.549430	0.000065
1682	1.6726e+02	-6.5154	-70.462149	0.000304	3.040595	0.515091	0.000061
1683	1.6736e+02	-6.4932	-70.361220	0.000507	5.067659	0.858485	0.000101
1684	1.6746e+02	-6.4742	-70.268366	0.000466	4.662246	0.789806	0.000093
1685	1.6756e+02	-6.4538	-70.179549	0.000446	4.459540	0.755467	0.000089
1686	1.6766e+02	-6.4351	-70.155326	0.000122	1.216238	0.206036	0.000024
1687	1.6776e+02	-6.4142	-70.058435	0.000486	4.864953	0.824145	0.000097
1688	1.6786e+02	-6.3937	-70.001915	0.000284	2.837889	0.480751	0.000057
1689	1.6796e+02	-6.3736	-69.880801	0.000608	6.081191	1.030182	0.000122
1690	1.6806e+02	-6.3535	-69.808133	0.000365	3.648714	0.618109	0.000073
1691	1.6816e+02	-6.3330	-69.763724	0.000223	2.229770	0.377733	0.000045
1692	1.6825e+02	-6.3138	-69.670870	0.000466	4.662246	0.789806	0.000093
1693	1.6835e+02	-6.2953	-69.582053	0.000446	4.459540	0.755467	0.000089
1694	1.6845e+02	-6.2744	-69.521496	0.000304	3.040595	0.515091	0.000061
1695	1.6855e+02	-6.2552	-69.477087	0.000223	2.229770	0.377733	0.000045
1696	1.6865e+02	-6.2354	-69.400382	0.000385	3.851421	0.652448	0.000077
1697	1.6875e+02	-6.2148	-69.295416	0.000527	5.270365	0.892824	0.000105
1698	1.6885e+02	-6.1951	-69.226785	0.000345	3.446008	0.583770	0.000069
1699	1.6895e+02	-6.1752	-69.137968	0.000446	4.459540	0.755467	0.000089
1700	1.6905e+02	-6.1554	-69.077411	0.000304	3.040595	0.515091	0.000061
1701	1.6915e+02	-6.1340	-69.004743	0.000365	3.648714	0.618109	0.000073
1702	1.6925e+02	-6.1145	-68.903814	0.000507	5.067659	0.858485	0.000101
1703	1.6935e+02	-6.0949	-68.879591	0.000122	1.216238	0.206036	0.000024
1704	1.6945e+02	-6.0745	-68.750403	0.000649	6.486603	1.098860	0.000130
1705	1.6955e+02	-6.0556	-68.661586	0.000446	4.459540	0.755467	0.000089
1706	1.6965e+02	-6.0360	-68.568732	0.000466	4.662246	0.789806	0.000093
1707	1.6975e+02	-6.0159	-68.504138	0.000324	3.243302	0.549430	0.000065
1708	1.6985e+02	-5.9959	-68.411284	0.000466	4.662246	0.789806	0.000093
1709	1.6995e+02	-5.9758	-68.330541	0.000405	4.054127	0.686788	0.000081
1710	1.7005e+02	-5.9555	-68.274021	0.000284	2.837889	0.480751	0.000057
1711	1.7015e+02	-5.9364	-68.173093	0.000507	5.067659	0.858485	0.000101
1712	1.7024e+02	-5.9149	-68.112536	0.000304	3.040595	0.515091	0.000061
1713	1.7034e+02	-5.8960	-68.019681	0.000466	4.662246	0.789806	0.000093
1714	1.7044e+02	-5.8762	-67.983347	0.000182	1.824357	0.309054	0.000037
1715	1.7054e+02	-5.8569	-67.813788	0.000851	8.513667	1.442254	0.000170
1716	1.7064e+02	-5.8365	-67.769379	0.000223	2.229770	0.377733	0.000045
1717	1.7074e+02	-5.8172	-67.696711	0.000365	3.648714	0.618109	0.000073
1718	1.7084e+02	-5.7967	-67.615968	0.000405	4.054127	0.686788	0.000081
1719	1.7094e+02	-5.7761	-67.519077	0.000486	4.864953	0.824145	0.000097
1720	1.7104e+02	-5.7562	-67.450445	0.000345	3.446008	0.583770	0.000069
1721	1.7114e+02	-5.7368	-67.317220	0.000669	6.689310	1.133200	0.000134
1722	1.7124e+02	-5.7176	-67.232440	0.000426	4.256833	0.721127	0.000085
1723	1.7134e+02	-5.6973	-67.127474	0.000527	5.270365	0.892824	0.000105
1724	1.7144e+02	-5.6765	-67.107289	0.000101	1.013532	0.171697	0.000020
1725	1.7154e+02	-5.6561	-67.006360	0.000507	5.067659	0.858485	0.000101
1726	1.7164e+02	-5.6368	-66.913506	0.000466	4.662246	0.789806	0.000093
1727	1.7174e+02	-5.6181	-66.832764	0.000405	4.054127	0.686788	0.000081
1728	1.7184e+02	-5.5965	-66.772207	0.000304	3.040595	0.515091	0.000061
1729	1.7194e+02	-5.5766	-66.663204	0.000547	5.473072	0.927163	0.000110
1730	1.7204e+02	-5.5576	-66.582461	0.000405	4.054127	0.686788	0.000081
1731	1.7213e+02	-5.5383	-66.481533	0.000507	5.067659	0.858485	0.000101
1732	1.7223e+02	-5.5170	-66.396753	0.000426	4.256833	0.721127	0.000085
1733	1.7233e+02	-5.4965	-66.287750	0.000547	5.473072	0.927163	0.000110
1734	1.7243e+02	-5.4780	-66.202970	0.000426	4.256833	0.721127	0.000085
1735	1.7253e+02	-5.4573	-66.142413	0.000304	3.040595	0.515091	0.000061
1736	1.7263e+02	-5.4380	-66.021299	0.000608	6.081191	1.030182	0.000122
1737	1.7273e+02	-5.4184	-65.952668	0.000345	3.446008	0.583770	0.000069
1738	1.7283e+02	-5.3986	-65.871925	0.000405	4.054127	0.686788	0.000081
1739	1.7293e+02	-5.3782	-65.787145	0.000426	4.256833	0.721127	0.000085
1740	1.7303e+02	-5.3585	-65.690254	0.000486	4.864953	0.824145	0.000097
1741	1.7313e+02	-5.3391	-65.609511	0.000405	4.054127	0.686788	0.000081
1742	1.7323e+02	-5.3185	-65.536843	0.000365	3.648714	0.618109	0.000073
1743	1.7333e+02	-5.2982	-65.423803	0.000568	5.675778	0.961503	0.000114
1744	1.7343e+02	-5.2780	-65.330949	0.000466	4.662246	0.789806	0.000093
1745	1.7353e+02	-5.2580	-65.250206	0.000405	4.054127	0.686788	0.000081
1746	1.7363e+02	-5.2383	-65.217909	0.000162	1.621651	0.274715	0.000032
1747	1.7373e+02	-5.2186	-65.088721	0.000649	6.486603	1.098860	0.000130
1748	1.7383e+02	-5.1992	-64.987793	0.000507	5.067659	0.858485	0.000101
1749	1.7393e+02	-5.1788	-64.870716	0.000588	5.878484	0.995842	0.000118
1750	1.7403e+02	-5.1578	-64.781899	0.000446	4.459540	0.755467	0.000089
1751	1.7413e+02	-5.1387	-64.729416	0.000264	2.635183	0.446412	0.000053
1752	1.7422e+02	-5.1184	-64.664822	0.000324	3.243302	0.549430	0.000065
1753	1.7432e+02	-5.0985	-64.531596	0.000669	6.689310	1.133200	0.000134
1754	1.7442e+02	-5.0780	-64.402408	0.000649	6.486603	1.098860	0.000130
1755	1.7452e+02	-5.0589	-64.345888	0.000284	2.837889	0.480751	0.000057
1756	1.7462e+02	-5.0392	-64.269182	0.000385	3.851421	0.652448	0.000077
1757	1.7472e+02	-5.0198	-64.184403	0.000426	4.256833	0.721127	0.000085
1758	1.7482e+02	-4.9991	-64.087511	0.000486	4.864953	0.824145	0.000097
1759	1.7492e+02	-4.9799	-63.986583	0.000507	5.067659	0.858485	0.000101
1760	1.7502e+02	-4.9603	-63.881617	0.000527	5.270365	0.892824	0.000105
1761	1.7512e+02	-4.9402	-63.780689	0.000507	5.067659	0.858485	0.000101
1762	1.7522e+02	-4.9191	-63.716095	0.000324	3.243302	0.549430	0.000065
1763	1.7532e+02	-4.9001	-63.647463	0.000345	3.446008	0.583770	0.000069
1764	1.7542e+02	-4.8804	-63.498089	0.000750	7.500135	1.270557	0.000150
1765	1.7552e+02	-4.8598	-63.445607	0.000264	2.635183	0.446412	0.000053
1766	1.7562e+02	-4.8402	-63.340641	0.000527	5.270365	0.892824	0.000105
1767	1.7572e+02	-4.8196	-63.276047	0.000324	3.243302	0.549430	0.000065
1768	1.7582e+02	-4.8012	-63.163007	0.000568	5.675778	0.961503	0.000114
1769	1.7592e+02	-4.7806	-63.037856	0.000628	6.283897	1.064521	0.000126
1770	1.7602e+02	-4.7606	-62.936928	0.000507	5.067659	0.858485	0.000101
1771	1.7612e+02	-4.7400	-62.844073	0.000466	4.662246	0.789806	0.000093
1772	1.7621e+02	-4.7209	-62.763331	0.000405	4.054127	0.686788	0.000081
1773	1.7631e+02	-4.7008	-62.666439	0.000486	4.864953	0.824145	0.000097
1774	1.7641e+02	-4.6819	-62.605882	0.000304	3.040595	0.515091	0.000061
1775	1.7651e+02	-4.6613	-62.517065	0.000446	4.459540	0.755467	0.000089
1776	1.7661e+02	-4.6413	-62.408063	0.000547	5.473072	0.927163	0.000110
1777	1.7671e+02	-4.6211	-62.331357	0.000385	3.851421	0.652448	0.000077
1778	1.7681e+02	-4.6010	-62.181983	0.000750	7.500135	1.270557	0.000150
1779	1.7691e+02	-4.5822	-62.141612	0.000203	2.027064	0.343394	0.000041
1780	1.7701e+02	-4.5613	-61.992238	0.000750	7.500135	1.270557	0.000150
1781	1.7711e+02	-4.5409	-61.955904	0.000182	1.824357	0.309054	0.000037
1782	1.7721e+02	-4.5218	-61.846901	0.000547	5.473072	0.927163	0.000110
1783	1.7731e+02	-4.5020	-61.729824	0.000588	5.878484	0.995842	0.000118
1784	1.7741e+02	-4.4816	-61.620821	0.000547	5.473072	0.927163	0.000110
1785	1.7751e+02	-4.4609	-61.576413	0.000223	2.229770	0.377733	0.000045
1786	1.7761e+02	-4.4420	-61.435113	0.000709	7.094722	1.201879	0.000142
1787	1.7771e+02	-4.4214	-61.334185	0.000507	5.067659	0.858485	0.000101
1788	1.7781e+02	-4.4021	-61.265553	0.000345	3.446008	0.583770	0.000069
1789	1.7791e+02	-4.3822	-61.180774	0.000426	4.256833	0.721127	0.000085
1790	1.7801e+02	-4.3616	-61.067734	0.000568	5.675778	0.961503	0.000114
1791	1.7810e+02	-4.3426	-60.986991	0.000405	4.054127	0.686788	0.000081
1792	1.7820e+02	-4.3216	-60.890100	0.000486	4.864953	0.824145	0.000097
1793	1.7830e+02	-4.3027	-60.785134	0.000527	5.270365	0.892824	0.000105
1794	1.7840e+02	-4.2828	-60.704392	0.000405	4.054127	0.686788	0.000081
1795	1.7850e+02	-4.2622	-60.603463	0.000507	5.067659	0.858485	0.000101
1796	1.7860e+02	-4.2419	-60.502535	0.000507	5.067659	0.858485	0.000101
1797	1.7870e+02	-4.2227	-60.405643	0.000486	4.864953	0.824145	0.000097
1798	1.7880e+02	-4.2030	-60.292604	0.000568	5.675778	0.961503	0.000114
1799	1.7890e+02	-4.1828	-60.171490	0.000608	6.081191	1.030182	0.000122
1800	1.7900e+02	-4.1622	-60.074598	0.000486	4.864953	0.824145	0.000097
1801	1.7910e+02	-4.1428	-59.997893	0.000385	3.851421	0.652448	0.000077
1802	1.7920e+02	-4.1235	-59.937336	0.000304	3.040595	0.515091	0.000061
1803	1.7930e+02	-4.1026	-59.848519	0.000446	4.459540	0.755467	0.000089
1804	1.7940e+02	-4.0827	-59.719330	0.000649	6.486603	1.098860	0.000130
1805	1.7950e+02	-4.0625	-59.662811	0.000284	2.837889	0.480751	0.000057
1806	1.7960e+02	-4.0436	-59.553808	0.000547	5.473072	0.927163	0.000110
1807	1.7970e+02	-4.0245	-59.460954	0.000466	4.662246	0.789806	0.000093
1808	1.7980e+02	-4.0043	-59.315617	0.000730	7.297429	1.236218	0.000146
1809	1.7990e+02	-3.9828	-59.271208	0.000223	2.229770	0.377733	0.000045
1810	1.8000e+02	-3.9639	-59.137983	0.000669	6.689310	1.133200	0.000134
1811	1.8009e+02	-3.9426	-59.073389	0.000324	3.243302	0.549430	0.000065
1812	1.8019e+02	-3.9236	-58.968423	0.000527	5.270365	0.892824	0.000105
1813	1.8029e+02	-3.9038	-58.831161	0.000689	6.892016	1.167539	0.000138
1814	1.8039e+02	-3.8824	-58.806938	0.000122	1.216238	0.206036	0.000024
1815	1.8049e+02	-3.8634	-58.693898	0.000568	5.675778	0.961503	0.000114
1816	1.8059e+02	-3.8445	-58.601044	0.000466	4.662246	0.789806	0.000093
1817	1.8069e+02	-3.8242	-58.500115	0.000507	5.067659	0.858485	0.000101
1818	1.8079e+02	-3.8036	-58.387076	0.000568	5.675778	0.961503	0.000114
1819	1.8089e+02	-3.7840	-58.302296	0.000426	4.256833	0.721127	0.000085
1820	1.8099e+02	-3.7653	-58.225590	0.000385	3.851421	0.652448	0.000077
1821	1.8109e+02	-3.7439	-58.148885	0.000385	3.851421	0.652448	0.000077
1822	1.8119e+02	-3.7245	-58.011622	0.000689	6.892016	1.167539	0.000138
1823	1.8129e+02	-3.7038	-57.942991	0.000345	3.446008	0.583770	0.000069
1824	1.8139e+02	-3.6847	-57.773431	0.000851	8.513667	1.442254	0.000170
1825	1.8149e+02	-3.6647	-57.680577	0.000466	4.662246	0.789806	0.000093
1826	1.8159e+02	-3.6446	-57.591760	0.000446	4.459540	0.755467	0.000089
1827	1.8169e+02	-3.6261	-57.482757	0.000547	5.473072	0.927163	0.000110
1828	1.8179e+02	-3.6042	-57.438349	0.000223	2.229770	0.377733	0.000045
1829	1.8189e+02	-3.5857	-57.301086	0.000689	6.892016	1.167539	0.000138
1830	1.8199e+02	-3.5648	-57.192083	0.000547	5.473072	0.927163	0.000110
1831	1.8209e+02	-3.5451	-57.079044	0.000568	5.675778	0.961503	0.000114
1832	1.8218e+02	-3.5263	-56.982152	0.000486	4.864953	0.824145	0.000097
1833	1.8228e+02	-3.5052	-56.909484	0.000365	3.648714	0.618109	0.000073
1834	1.8238e+02	-3.4858	-56.804518	0.000527	5.270365	0.892824	0.000105
1835	1.8248e+02	-3.4661	-56.683404	0.000608	6.081191	1.030182	0.000122
1836	1.8258e+02	-3.4460	-56.614773	0.000345	3.446008	0.583770	0.000069
1837	1.8268e+02	-3.4264	-56.473473	0.000709	7.094722	1.201879	0.000142
1838	1.8278e+02	-3.4062	-56.396768	0.000385	3.851421	0.652448	0.000077
1839	1.8288e+02	-3.3849	-56.295839	0.000507	5.067659	0.858485	0.000101
1840	1.8298e+02	-3.3664	-56.170688	0.000628	6.283897	1.064521	0.000126
1841	1.8308e+02	-3.3453	-56.085908	0.000426	4.256833	0.721127	0.000085
1842	1.8318e+02	-3.3258	-55.940571	0.000730	7.297429	1.236218	0.000146
1843	1.8328e+02	-3.3070	-55.896163	0.000223	2.229770	0.377733	0.000045
1844	1.8338e+02	-3.2860	-55.766975	0.000649	6.486603	1.098860	0.000130
1845	1.8348e+02	-3.2666	-55.674120	0.000466	4.662246	0.789806	0.000093
1846	1.8358e+02	-3.2466	-55.565118	0.000547	5.473072	0.927163	0.000110
1847	1.8368e+02	-3.2266	-55.476301	0.000446	4.459540	0.755467	0.000089
1848	1.8378e+02	-3.2059	-55.343075	0.000669	6.689310	1.133200	0.000134
1849	1.8388e+02	-3.1857	-55.254258	0.000446	4.459540	0.755467	0.000089
1850	1.8398e+02	-3.1665	-55.193701	0.000304	3.040595	0.515091	0.000061
1851	1.8407e+02	-3.1464	-55.020104	0.000872	8.716373	1.476594	0.000174
1852	1.8417e+02	-3.1283	-54.939362	0.000405	4.054127	0.686788	0.000081
1853	1.8427e+02	-3.1075	-54.830359	0.000547	5.473072	0.927163	0.000110
1854	1.8437e+02	-3.0869	-54.717319	0.000568	5.675778	0.961503	0.000114
1855	1.8447e+02	-3.0670	-54.612354	0.000527	5.270365	0.892824	0.000105
1856	1.8457e+02	-3.0469	-54.523537	0.000446	4.459540	0.755467	0.000089
1857	1.8467e+02	-3.0276	-54.418571	0.000527	5.270365	0.892824	0.000105
1858	1.8477e+02	-3.0072	-54.325717	0.000466	4.662246	0.789806	0.000093
1859	1.8487e+02	-2.9870	-54.232863	0.000466	4.662246	0.789806	0.000093
1860	1.8497e+02	-2.9666	-54.111749	0.000608	6.081191	1.030182	0.000122
1861	1.8507e+02	-2.9472	-53.982561	0.000649	6.486603	1.098860	0.000130
1862	1.8517e+02	-2.9272	-53.897781	0.000426	4.256833	0.721127	0.000085
1863	1.8527e+02	-2.9078	-53.792815	0.000527	5.270365	0.892824	0.000105
1864	1.8537e+02	-2.8873	-53.663627	0.000649	6.486603	1.098860	0.000130
1865	1.8547e+02	-2.8683	-53.599033	0.000324	3.243302	0.549430	0.000065
1866	1.8557e+02	-2.8485	-53.449659	0.000750	7.500135	1.270557	0.000150
1867	1.8567e+02	-2.8272	-53.385064	0.000324	3.243302	0.549430	0.000065
1868	1.8577e+02	-2.8078	-53.251839	0.000669	6.689310	1.133200	0.000134
1869	1.8587e+02	-2.7875	-53.187245	0.000324	3.243302	0.549430	0.000065
1870	1.8597e+02	-2.7684	-53.029796	0.000791	7.905548	1.339236	0.000158
1871	1.8606e+02	-2.7486	-52.924831	0.000527	5.270365	0.892824	0.000105
1872	1.8616e+02	-2.7279	-52.836014	0.000446	4.459540	0.755467	0.000089
1873	1.8626e+02	-2.7077	-52.731048	0.000527	5.270365	0.892824	0.000105
1874	1.8636e+02	-2.6884	-52.577637	0.000770	7.702842	1.304897	0.000154
1875	1.8646e+02	-2.6686	-52.476709	0.000507	5.067659	0.858485	0.000101
1876	1.8656e+02	-2.6482	-52.375780	0.000507	5.067659	0.858485	0.000101
1877	1.8666e+02	-2.6282	-52.299075	0.000385	3.851421	0.652448	0.000077
1878	1.8676e+02	-2.6088	-52.206221	0.000466	4.662246	0.789806	0.000093
1879	1.8686e+02	-2.5876	-52.052810	0.000770	7.702842	1.304897	0.000154
1880	1.8696e+02	-2.5687	-51.947844	0.000527	5.270365	0.892824	0.000105
1881	1.8706e+02	-2.5491	-51.850953	0.000486	4.864953	0.824145	0.000097
1882	1.8716e+02	-2.5291	-51.709653	0.000709	7.094722	1.201879	0.000142
1883	1.8726e+02	-2.5092	-51.612762	0.000486	4.864953	0.824145	0.000097
1884	1.8736e+02	-2.4896	-51.527982	0.000426	4.256833	0.721127	0.000085
1885	1.8746e+02	-2.4692	-51.346311	0.000912	9.121786	1.545272	0.000183
1886	1.8756e+02	-2.4501	-51.289791	0.000284	2.837889	0.480751	0.000057
1887	1.8766e+02	-2.4303	-51.152528	0.000689	6.892016	1.167539	0.000138
1888	1.8776e+02	-2.4095	-51.047563	0.000527	5.270365	0.892824	0.000105
1889	1.8786e+02	-2.3894	-50.962783	0.000426	4.256833	0.721127	0.000085
1890	1.8796e+02	-2.3706	-50.813409	0.000750	7.500135	1.270557	0.000150
1891	1.8806e+02	-2.3495	-50.692295	0.000608	6.081191	1.030182	0.000122
1892	1.8815e+02	-2.3300	-50.623664	0.000345	3.446008	0.583770	0.000069
1893	1.8825e+02	-2.3093	-50.498512	0.000628	6.283897	1.064521	0.000126
1894	1.8835e+02	-2.2903	-50.369324	0.000649	6.486603	1.098860	0.000130
1895	1.8845e+02	-2.2701	-50.252247	0.000588	5.878484	0.995842	0.000118
1896	1.8855e+02	-2.2502	-50.119022	0.000669	6.689310	1.133200	0.000134
1897	1.8865e+02	-2.2307	-50.014056	0.000527	5.270365	0.892824	0.000105
1898	1.8875e+02	-2.2104	-49.905053	0.000547	5.473072	0.927163	0.000110
1899	1.8885e+02	-2.1909	-49.792014	0.000568	5.675778	0.961503	0.000114
1900	1.8895e+02	-2.1708	-49.662825	0.000649	6.486603	1.098860	0.000130
1901	1.8905e+02	-2.1506	-49.557860	0.000527	5.270365	0.892824	0.000105
1902	1.8915e+02	-2.1305	-49.436746	0.000608	6.081191	1.030182	0.000122
1903	1.8925e+02	-2.1113	-49.335817	0.000507	5.067659	0.858485	0.000101
1904	1.8935e+02	-2.0911	-49.206629	0.000649	6.486603	1.098860	0.000130
1905	1.8945e+02	-2.0702	-49.085515	0.000608	6.081191	1.030182	0.000122
1906	1.8955e+02	-2.0510	-48.996698	0.000446	4.459540	0.755467	0.000089
1907	1.8965e+02	-2.0310	-48.891732	0.000527	5.270365	0.892824	0.000105
1908	1.8975e+02	-2.0116	-48.782730	0.000547	5.473072	0.927163	0.000110
1909	1.8985e+02	-1.9908	-48.633356	0.000750	7.500135	1.270557	0.000150
1910	1.8995e+02	-1.9708	-48.512242	0.000608	6.081191	1.030182	0.000122
1911	1.9004e+02	-1.9521	-48.379016	0.000669	6.689310	1.133200	0.000134
1912	1.9014e+02	-1.9308	-48.278088	0.000507	5.067659	0.858485	0.000101
1913	1.9024e+02	-1.9115	-48.209456	0.000345	3.446008	0.583770	0.000069
1914	1.9034e+02	-1.8917	-48.064120	0.000730	7.297429	1.236218	0.000146
1915	1.9044e+02	-1.8724	-47.955117	0.000547	5.473072	0.927163	0.000110
1916	1.9054e+02	-1.8513	-47.813817	0.000709	7.094722	1.201879	0.000142
1917	1.9064e+02	-1.8326	-47.680592	0.000669	6.689310	1.133200	0.000134
1918	1.9074e+02	-1.8125	-47.599849	0.000405	4.054127	0.686788	0.000081
1919	1.9084e+02	-1.7926	-47.470661	0.000649	6.486603	1.098860	0.000130
1920	1.9094e+02	-1.7719	-47.377806	0.000466	4.662246	0.789806	0.000093
1921	1.9104e+02	-1.7513	-47.216321	0.000811	8.108254	1.373575	0.000162
1922	1.9114e+02	-1.7320	-47.127504	0.000446	4.459540	0.755467	0.000089
1923	1.9124e+02	-1.7118	-46.998316	0.000649	6.486603	1.098860	0.000130
1924	1.9134e+02	-1.6927	-46.909499	0.000446	4.459540	0.755467	0.000089
1925	1.9144e+02	-1.6727	-46.784348	0.000628	6.283897	1.064521	0.000126
1926	1.9154e+02	-1.6530	-46.647085	0.000689	6.892016	1.167539	0.000138
1927	1.9164e+02	-1.6325	-46.521934	0.000628	6.283897	1.064521	0.000126
1928	1.9174e+02	-1.6122	-46.429080	0.000466	4.662246	0.789806	0.000093
1929	1.9184e+02	-1.5933	-46.328151	0.000507	5.067659	0.858485	0.000101
1930	1.9194e+02	-1.5730	-46.203000	0.000628	6.283897	1.064521	0.000126
1931	1.9203e+02	-1.5533	-46.093997	0.000547	5.473072	0.927163	0.000110
1932	1.9213e+02	-1.5338	-45.960772	0.000669	6.689310	1.133200	0.000134
1933	1.9223e+02	-1.5134	-45.875992	0.000426	4.256833	0.721127	0.000085
1934	1.9233e+02	-1.4934	-45.742766	0.000669	6.689310	1.133200	0.000134
1935	1.9243e+02	-1.4736	-45.609541	0.000669	6.689310	1.133200	0.000134
1936	1.9253e+02	-1.4536	-45.524761	0.000426	4.256833	0.721127	0.000085
1937	1.9263e+02	-1.4337	-45.355201	0.000851	8.513667	1.442254	0.000170
1938	1.9273e+02	-1.4138	-45.258310	0.000486	4.864953	0.824145	0.000097
1939	1.9283e+02	-1.3938	-45.108936	0.000750	7.500135	1.270557	0.000150
1940	1.9293e+02	-1.3734	-45.020119	0.000446	4.459540	0.755467	0.000089
1941	1.9303e+02	-1.3525	-44.939376	0.000405	4.054127	0.686788	0.000081
1942	1.9313e+02	-1.3341	-44.785965	0.000770	7.702842	1.304897	0.000154
1943	1.9323e+02	-1.3148	-44.660814	0.000628	6.283897	1.064521	0.000126
1944	1.9333e+02	-1.2939	-44.571997	0.000446	4.459540	0.755467	0.000089
1945	1.9343e+02	-1.2730	-44.418586	0.000770	7.702842	1.304897	0.000154
1946	1.9353e+02	-1.2546	-44.261138	0.000791	7.905548	1.339236	0.000158
1947	1.9363e+02	-1.2343	-44.180395	0.000405	4.054127	0.686788	0.000081
1948	1.9373e+02	-1.2153	-44.079467	0.000507	5.067659	0.858485	0.000101
1949	1.9383e+02	-1.1942	-43.926055	0.000770	7.702842	1.304897	0.000154
1950	1.9393e+02	-1.1755	-43.821090	0.000527	5.270365	0.892824	0.000105
1951	1.9403e+02	-1.1552	-43.663642	0.000791	7.905548	1.339236	0.000158
1952	1.9412e+02	-1.1349	-43.595010	0.000345	3.446008	0.583770	0.000069
1953	1.9422e+02	-1.1149	-43.417376	0.000892	8.919080	1.510933	0.000179
1954	1.9432e+02	-1.0945	-43.296262	0.000608	6.081191	1.030182	0.000122
1955	1.9442e+02	-1.0750	-43.223594	0.000365	3.648714	0.618109	0.000073
1956	1.9452e+02	-1.0549	-43.098443	0.000628	6.283897	1.064521	0.000126
1957	1.9462e+02	-1.0342	-42.973291	0.000628	6.283897	1.064521	0.000126
1958	1.9472e+02	-1.0152	-42.848140	0.000628	6.283897	1.064521	0.000126
1959	1.9482e+02	-0.9956	-42.747212	0.000507	5.067659	0.858485	0.000101
1960	1.9492e+02	-0.9753	-42.605912	0.000709	7.094722	1.201879	0.000142
1961	1.9502e+02	-0.9557	-42.529206	0.000385	3.851421	0.652448	0.000077
1962	1.9512e+02	-0.9357	-42.363684	0.000831	8.310961	1.407915	0.000166
1963	1.9522e+02	-0.9158	-42.254681	0.000547	5.473072	0.927163	0.000110
1964	1.9532e+02	-0.8958	-42.137604	0.000588	5.878484	0.995842	0.000118
1965	1.9542e+02	-0.8760	-41.988230	0.000750	7.500135	1.270557	0.000150
1966	1.9552e+02	-0.8571	-41.919599	0.000345	3.446008	0.583770	0.000069
1967	1.9562e+02	-0.8355	-41.798485	0.000608	6.081191	1.030182	0.000122
1968	1.9572e+02	-0.8166	-41.669297	0.000649	6.486603	1.098860	0.000130
1969	1.9582e+02	-0.7957	-41.552220	0.000588	5.878484	0.995842	0.000118
1970	1.9592e+02	-0.7769	-41.451291	0.000507	5.067659	0.858485	0.000101
1971	1.9601e+02	-0.7564	-41.314029	0.000689	6.892016	1.167539	0.000138
1972	1.9611e+02	-0.7360	-41.213100	0.000507	5.067659	0.858485	0.000101
1973	1.9621e+02	-0.7165	-41.059689	0.000770	7.702842	1.304897	0.000154
1974	1.9631e+02	-0.6964	-40.942612	0.000588	5.878484	0.995842	0.000118
1975	1.9641e+02	-0.6760	-40.837647	0.000527	5.270365	0.892824	0.000105
1976	1.9651e+02	-0.6559	-40.732681	0.000527	5.270365	0.892824	0.000105
1977	1.9661e+02	-0.6368	-40.607530	0.000628	6.283897	1.064521	0.000126
1978	1.9671e+02	-0.6174	-40.466230	0.000709	7.094722	1.201879	0.000142
1979	1.9681e+02	-0.5969	-40.353190	0.000568	5.675778	0.961503	0.000114
1980	1.9691e+02	-0.5762	-40.244188	0.000547	5.473072	0.927163	0.000110
1981	1.9701e+02	-0.5566	-40.147296	0.000486	4.864953	0.824145	0.000097
1982	1.9711e+02	-0.5379	-40.005997	0.000709	7.094722	1.201879	0.000142
1983	1.9721e+02	-0.5178	-39.860660	0.000730	7.297429	1.236218	0.000146
1984	1.9731e+02	-0.4976	-39.751657	0.000547	5.473072	0.927163	0.000110
1985	1.9741e+02	-0.4768	-39.634580	0.000588	5.878484	0.995842	0.000118
1986	1.9751e+02	-0.4579	-39.529615	0.000527	5.270365	0.892824	0.000105
1987	1.9761e+02	-0.4379	-39.412538	0.000588	5.878484	0.995842	0.000118
1988	1.9771e+02	-0.4176	-39.307572	0.000527	5.270365	0.892824	0.000105
1989	1.9781e+02	-0.3983	-39.182421	0.000628	6.283897	1.064521	0.000126
1990	1.9791e+02	-0.3782	-39.033047	0.000750	7.500135	1.270557	0.000150
1991	1.9800e+02	-0.3572	-38.952304	0.000405	4.054127	0.686788	0.000081
1992	1.9810e+02	-0.3384	-38.750447	0.001014	10.135318	1.716969	0.000203
1993	1.9820e+02	-0.3181	-38.693927	0.000284	2.837889	0.480751	0.000057
1994	1.9830e+02	-0.2966	-38.560702	0.000669	6.689310	1.133200	0.000134
1995	1.9840e+02	-0.2785	-38.419402	0.000709	7.094722	1.201879	0.000142
1996	1.9850e+02	-0.2577	-38.322511	0.000486	4.864953	0.824145	0.000097
1997	1.9860e+02	-0.2387	-38.213508	0.000547	5.473072	0.927163	0.000110
1998	1.9870e+02	-0.2180	-38.043949	0.000851	8.513667	1.442254	0.000170
1999	1.9880e+02	-0.1987	-37.983392	0.000304	3.040595	0.515091	0.000061
2000	1.9890e+02	-0.1775	-37.801720	0.000912	9.121786	1.545272	0.000183
2001	1.9900e+02	-0.1582	-37.696755	0.000527	5.270365	0.892824	0.000105
2002	1.9910e+02	-0.1382	-37.579678	0.000588	5.878484	0.995842	0.000118
2003	1.9920e+02	-0.1180	-37.462601	0.000588	5.878484	0.995842	0.000118
2004	1.9930e+02	-0.0976	-37.369747	0.000466	4.662246	0.789806	0.000093
2005	1.9940e+02	-0.0780	-37.228447	0.000709	7.094722	1.201879	0.000142
2006	1.9950e+02	-0.0582	-37.103296	0.000628	6.283897	1.064521	0.000126
2007	1.9960e+02	-0.0390	-36.945848	0.000791	7.905548	1.339236	0.000158
2008	1.9970e+02	-0.0194	-36.877216	0.000345	3.446008	0.583770	0.000069
2009	1.9980e+02	-0.0001	-36.727842	0.000345	3.446008	0.583770	0.000150

PMax (uC/cm2):	5.15e+01
Pr (uC/cm2):	4.38e+00
-Pr (uC/cm2):	-6.11e+01
PLoss (uC/cm2):	-6.11e+01
-Vc:	-6.99e-01
C (Max-Eff) (nF):	5.16e-01
K (Eff):	8.73e+02
Vert. (+/-Pr) Shift (uC/cm2):	-2.83e+01
Offset (uC/cm2):	-2.43e+01

A (Loop Area - uC/cm2·Volts):	-3.32e-01



Hysteresis Version: 5.48.1 - Radiant Technologies, Inc., 1999 - 9/12/24

